timestamp,accel_x,accel_y,accel_z,gyro_x,gyro_y,gyro_z
1691753488118011,-0.04788403,0.06224924,9.91199493,0.01278317,-0.00106526,0.00426106
1691753488120020,-0.03351882,0.04309563,9.87368774,0.01491370,0.00106526,-0.01278317
1691753488122077,-0.00957681,-0.08140286,9.81622696,0.00745685,0.00532632,-0.01597897
1691753488124075,-0.00478840,-0.04309563,9.79228497,0.00319579,0.00745685,-0.00852212
1691753488126065,-0.01436521,0.01436521,9.84016895,0.00852212,0.00106526,0.00958738
1691753488128008,-0.02873042,0.03830723,9.87368774,0.01278317,0.00213053,0.01810949
1691753488130026,-0.01436521,0.07182605,9.87368774,0.01171791,0.00000000,0.01810949
1691753488132074,-0.00957681,-0.05746084,9.85932255,0.00745685,0.00213053,0.00852212
1691753488134011,0.00000000,-0.11492168,9.85453415,-0.00319579,0.00639159,-0.00639159
1691753488136018,-0.01436521,-0.00478840,9.87368774,0.00000000,0.00639159,-0.01384844
1691753488138039,-0.01436521,0.07182605,9.85453415,0.01278317,0.00532632,-0.01065264
1691753488140048,-0.00957681,0.07182605,9.84974575,0.01704423,0.00958738,0.00426106
1691753488142141,-0.00957681,-0.05267244,9.83538055,0.00958738,0.00426106,0.01491370
1691753488144016,-0.02394202,-0.11971009,9.83059216,-0.00426106,0.00532632,0.02024002
1691753488146050,-0.01915361,-0.02394202,9.90241814,-0.00745685,0.00106526,0.01278317
1691753488148023,-0.04309563,0.10055647,9.91678333,0.00852212,-0.00319579,0.00106526
1691753488150016,-0.07182605,0.05267244,9.90241814,0.01917476,0.00106526,-0.01171791
1691753488152041,-0.03351882,-0.01915361,9.83059216,0.00532632,0.00106526,-0.01278317
1691753488154074,-0.05267244,-0.06703765,9.78749657,-0.00532632,0.00213053,-0.00532632
1691753488156064,-0.03830723,-0.04788403,9.81143856,-0.00745685,0.00106526,0.01171791
1691753488158032,-0.04309563,0.09097967,9.84495735,0.00213053,-0.00319579,0.01810949
1691753488160019,-0.10055647,0.08140286,9.88326454,0.00639159,-0.00426106,0.01171791
1691753488162083,-0.06224924,-0.06224924,9.87368774,-0.00639159,-0.00106526,0.00106526
1691753488164044,-0.05267244,-0.10534488,9.83538055,-0.01384844,-0.00106526,-0.01171791
1691753488166034,-0.03351882,-0.05267244,9.87368774,-0.00532632,0.00319579,-0.01597897
1691753488168003,-0.02394202,0.03830723,9.88805294,0.00106526,-0.00213053,-0.00532632
1691753488170069,-0.06224924,0.15322891,9.86889935,0.00958738,0.00213053,0.01491370
1691753488172035,-0.00957681,-0.00478840,9.85932255,0.00319579,0.00000000,0.02663161
1691753488174073,-0.01915361,-0.15322891,9.84974575,-0.01704423,0.00000000,0.02237055
1691753488176041,-0.03830723,-0.05746084,9.88326454,-0.01810949,0.00000000,0.00958738
1691753488178026,0.00478840,0.06224924,9.91678333,-0.00319579,-0.00319579,-0.00958738
1691753488180043,-0.04788403,0.05746084,9.92157173,0.00639159,0.00106526,-0.01917476
1691753488182037,-0.00478840,-0.02873042,9.87847614,0.00639159,0.00319579,-0.01917476
1691753488184029,0.03351882,-0.11492168,9.83059216,-0.00426106,0.00319579,-0.00319579
1691753488186065,-0.00478840,-0.10534488,9.82580376,-0.01065264,0.00213053,0.01917476
1691753488188093,-0.00478840,0.03830723,9.86889935,0.00000000,-0.00426106,0.03195793
1691753488190119,-0.01915361,0.11013328,9.88805294,0.01384844,-0.00852212,0.02663161
1691753488192037,-0.03830723,-0.03351882,9.88805294,0.01065264,-0.00319579,0.00213053
1691753488194036,0.00000000,-0.15322891,9.84974575,-0.00106526,0.00000000,-0.02024002
1691753488196130,-0.00957681,-0.08140286,9.82101536,-0.00639159,0.00639159,-0.02876214
1691753488197997,0.01436521,0.03830723,9.86411095,0.00213053,0.00639159,-0.01278317
1691753488200024,-0.02394202,0.06703765,9.86411095,0.01384844,0.00319579,0.00426106
1691753488202047,-0.02394202,0.00957681,9.83059216,0.00958738,-0.00106526,0.02876214
1691753488204094,-0.02873042,-0.09097967,9.80665016,-0.03089267,-0.00532632,0.03195793
1691753488206024,0.00957681,-0.06224924,9.86411095,-0.04048005,-0.00426106,0.05752428
1691753488208013,0.01915361,-0.00957681,9.99818611,-0.04474111,-0.00106526,0.09480853
1691753488210022,-0.07661445,0.03830723,10.04607010,-0.02343582,-0.00319579,0.11717909
1691753488212055,0.01436521,0.04309563,10.11310768,-0.03834952,0.00639159,0.09267800
1691753488214120,0.02394202,-0.09576806,10.09395409,-0.10226539,0.01491370,0.05113269
1691753488216007,0.00000000,-0.14365210,9.97903252,-0.09800433,0.02663161,0.07669904
1691753488217985,0.05267244,-0.00478840,9.96945572,-0.06604639,0.01810949,0.07776430
1691753488220113,0.09576806,-0.01436521,9.98860931,-0.04367584,0.02450108,0.10652644
1691753488222046,0.05746084,0.01915361,9.82580376,0.00852212,0.04474111,0.23968449
1691753488224051,0.11492168,-0.07182605,9.81143856,-0.02982740,0.07350325,0.26205504
1691753488226081,0.30645782,-0.23463176,10.07001209,-0.02982740,0.11717909,0.29081720
1691753488228038,0.29688102,-0.31124622,10.15141487,-0.01065264,0.14807175,0.33129725
1691753488230063,0.29688102,-0.22984336,10.18972206,0.00000000,0.18109496,0.36432043
1691753488232053,0.45489833,-0.01915361,10.42914295,0.02556635,0.24074976,0.42397526
1691753488234028,0.42616791,0.03830723,10.47223854,0.02343582,0.29401299,0.42930156
1691753488236057,0.46926352,-0.20590134,10.42914295,-0.00532632,0.34621096,0.42717105
1691753488238034,0.28730419,-0.19632454,10.51054573,-0.01384844,0.46445531,0.43782368
1691753488240039,0.36870706,-0.34476504,10.53927612,-0.05326322,0.53476274,0.46978161
1691753488242025,0.13886370,-0.11971009,10.38604736,-0.10120012,0.61465758,0.50173956
1691753488244067,-0.00478840,-0.41180268,10.33816338,-0.11291803,0.69668293,0.49534798
1691753488246069,-0.10055647,-0.43574470,10.38604736,-0.07456851,0.75633776,0.47830373
1691753488248033,-0.08619126,-0.16280572,10.48181534,-0.09374327,0.78296936,0.46871635
1691753488250012,-0.08140286,0.09576806,10.56321812,-0.10333065,0.78083885,0.46552056
1691753488252071,0.01915361,0.81402856,10.71644688,-0.07243798,0.79255676,0.46658581
1691753488254149,0.11971009,1.23540807,11.05642319,-0.05432849,0.78509986,0.47617319
1691753488256075,0.12928689,0.94331545,11.20486355,-0.09374327,0.74781561,0.49641323
1691753488258027,0.03830723,0.88585460,11.26711273,-0.08841695,0.71798825,0.49747849
1691753488260037,0.09097967,0.71347213,11.57357121,-0.09480853,0.72011876,0.47830373
1691753488262226,0.13886370,0.62728083,11.59272480,-0.09693906,0.72118402,0.48682585
1691753488264051,0.17238252,0.29209262,12.08114147,-0.11078750,0.65939867,0.51452273
1691753488266090,0.05746084,0.09576806,12.14339066,-0.11078750,0.65407234,0.48363006
1691753488268027,0.22505496,0.16759412,12.13860226,-0.10120012,0.66685551,0.45912898
1691753488270104,0.19153613,0.03830723,12.44984913,-0.10652644,0.63489759,0.47617319
1691753488272050,0.13886370,-0.09097967,12.39717674,-0.11611383,0.59335232,0.46765110
1691753488274024,0.37828386,-0.19153613,12.67490387,-0.13102752,0.56352490,0.42504051
1691753488276030,0.09576806,-0.11971009,12.70363426,-0.14913702,0.53050166,0.42397526
1691753488278089,0.33039984,-0.21068975,12.84728622,-0.18216021,0.50493532,0.43995422
1691753488280120,0.10055647,-0.21547815,12.93826580,-0.21518342,0.47936898,0.44208473
1691753488282026,0.25378537,-0.01436521,12.84249783,-0.20666130,0.45699844,0.41545314
1691753488284041,0.31124622,-0.23463176,13.03882217,-0.19387813,0.46339002,0.41438785
1691753488286065,0.13886370,-0.08140286,12.99093819,-0.23861924,0.44741106,0.41758364
1691753488288080,0.33997664,-0.21547815,13.06755257,-0.25779399,0.43888894,0.40266997
1691753488290048,0.09576806,-0.22505496,12.94305420,-0.26312032,0.44315001,0.37710360
1691753488292037,0.23463176,-0.07661445,12.98614979,-0.24820662,0.44208473,0.36325517
1691753488294028,0.11492168,-0.31124622,13.05797577,-0.25033715,0.40906155,0.33449304
1691753488296139,0.24420857,-0.01915361,13.01009178,-0.25566345,0.38988680,0.33981934
1691753488298020,0.19632454,-0.18674773,13.01009178,-0.22903186,0.35899413,0.31851408
1691753488300033,0.12449849,-0.11971009,12.82813263,-0.18855180,0.33449304,0.32064459
1691753488302206,0.33039984,0.20111294,13.03882217,-0.20240024,0.31744879,0.33449304
1691753488304077,0.09097967,-0.39743748,12.87601662,-0.20133498,0.28762141,0.30892667
1691753488306206,0.37349546,0.18674773,12.97178459,-0.16937704,0.28549087,0.28868666
1691753488308014,0.15322891,-0.28251579,12.80897903,-0.13422331,0.27270770,0.30146983
1691753488310019,0.35434186,0.15322891,13.03403378,-0.16618125,0.25033715,0.28336033
1691753488312064,0.09097967,-0.20590134,12.99572659,-0.17576863,0.25140241,0.30360037
1691753488314089,0.32561144,-0.15322891,12.89517021,-0.16511598,0.23755397,0.28868666
1691753488316072,0.22984336,0.14844051,12.91911221,-0.18642128,0.20772657,0.26631612
1691753488318005,0.19632454,-0.35434186,12.68926907,-0.22690132,0.18322548,0.26418558
1691753488320061,0.40222588,0.11971009,12.83292103,-0.22264026,0.16405073,0.23861924
1691753488322097,0.14365210,-0.22984336,12.49294472,-0.21624868,0.13848437,0.21518342
1691753488324044,0.45010993,-0.11013328,12.49294472,-0.22477080,0.10972223,0.19494340
1691753488326003,0.20111294,-0.02394202,12.44506073,-0.25672874,0.05858954,0.19387813
1691753488328006,0.37349546,-0.24420857,12.28225517,-0.26631612,0.04261058,0.18322548
1691753488330058,0.32561144,0.19632454,12.33971596,-0.28016454,0.00426106,0.17363811
1691753488332132,0.29688102,-0.11971009,12.04283428,-0.27909929,-0.05432849,0.16618125
1691753488334012,0.46926352,0.14365210,12.13860226,-0.23329291,-0.10333065,0.16298546
1691753488336045,0.28730419,0.17238252,12.01410389,-0.19707392,-0.13209279,0.15020229
1691753488338045,0.55545479,0.12449849,11.84650993,-0.16831177,-0.15339808,0.15126754
1691753488340061,0.28251579,0.29688102,11.77468395,-0.14274544,-0.18855180,0.17044231
1691753488342047,0.29688102,-0.01436521,11.68370438,-0.11078750,-0.21731395,0.16831177
1691753488344046,0.28730419,0.22026655,11.60230160,-0.09906960,-0.22370553,0.14381070
1691753488346100,0.13886370,0.03351882,11.40597725,-0.08096009,-0.21944447,0.13848437
1691753488348004,0.31124622,0.05746084,11.22401714,-0.06604639,-0.24820662,0.12357067
1691753488350022,0.13407530,0.14365210,11.19528675,-0.04900216,-0.25459820,0.12037488
1691753488352067,0.26336220,-0.09576806,11.04205799,-0.06178534,-0.24501082,0.10546118
1691753488354106,0.24420857,0.11492168,10.89840603,-0.06498113,-0.26525083,0.10546118
1691753488356074,0.09097967,0.03830723,10.73081207,-0.04154531,-0.29401299,0.07563377
1691753488357987,0.40222588,0.14844051,10.66377449,-0.02130529,-0.31957933,0.08096009
1691753488360041,0.24420857,0.25857377,10.62067890,-0.00319579,-0.34301513,0.06817693
1691753488362068,0.42616791,0.15322891,10.49618053,0.01810949,-0.37071201,0.06817693
1691753488364085,0.37349546,0.29209262,10.40041256,0.05219796,-0.38882151,0.06711166
1691753488366109,0.17238252,0.18674773,10.35252857,0.05432849,-0.40480047,0.05752428
1691753488367972,0.35434186,0.21547815,10.25197124,0.07669904,-0.42077947,0.05326322
1691753488370081,0.11971009,0.13886370,10.21845245,0.10865697,-0.43036684,0.05326322
1691753488372018,0.23463176,0.13886370,10.14183807,0.13209279,-0.43995422,0.04900216
1691753488374033,0.28730419,0.03830723,10.21366405,0.13102752,-0.45593318,0.05752428
1691753488376005,-0.03351882,-0.12449849,10.18972206,0.13102752,-0.46765110,0.05326322
1691753488378019,0.25857377,0.00000000,10.08916569,0.13741912,-0.49108690,0.04367584
1691753488380027,-0.01915361,-0.06703765,10.15620327,0.15339808,-0.50067431,0.03834952
1691753488382065,-0.00478840,0.11492168,10.09874249,0.15552860,-0.52517539,0.05219796
1691753488384058,0.26336220,0.12449849,10.06522369,0.16511598,-0.54328483,0.04474111
1691753488386095,-0.02394202,0.00000000,10.02212811,0.16298546,-0.55500275,0.05432849
1691753488388083,0.27772740,0.17717093,9.90241814,0.16298546,-0.56032908,0.04580637
1691753488390224,0.20590134,-0.09576806,10.05564690,0.15339808,-0.57630807,0.03621899
1691753488392027,0.04788403,0.04788403,9.84974575,0.13209279,-0.58802599,0.02237055
1691753488394082,0.40222588,0.05267244,9.90720654,0.12250541,-0.59867859,0.01810949
1691753488396105,0.04788403,-0.19153613,10.04128170,0.12144014,-0.60187441,0.00958738
1691753488398020,0.24899697,0.07661445,9.81143856,0.11291803,-0.61678809,0.00639159
1691753488400050,0.26336220,-0.08619126,10.02212811,0.09693906,-0.61359233,-0.00106526
1691753488402105,-0.03351882,-0.11013328,9.93114853,0.08628642,-0.61252707,0.00745685
1691753488404079,0.28730419,0.10534488,9.83538055,0.09267800,-0.60826600,0.00958738
1691753488406028,0.01915361,-0.18195933,10.04607010,0.08202536,-0.59548283,0.02450108
1691753488408055,-0.02873042,0.06224924,9.84016895,0.08948221,-0.57204700,0.01917476
1691753488410013,0.13407530,-0.05746084,9.87847614,0.09480853,-0.55393749,0.02024002
1691753488411966,-0.10534488,-0.19632454,9.86411095,0.09374327,-0.51878381,0.00852212
1691753488414109,0.00000000,0.08140286,9.79228497,0.10120012,-0.51132691,0.00852212
1691753488416080,-0.01915361,-0.16759412,9.94551373,0.11185277,-0.48256478,0.00000000
1691753488417988,-0.08619126,-0.05267244,9.81143856,0.12250541,-0.46019423,-0.00745685
1691753488420156,-0.02394202,0.12928689,9.74440098,0.13209279,-0.46658581,-0.00532632
1691753488422053,0.04788403,-0.05267244,9.77791977,0.15659387,-0.46978161,-0.00745685
1691753488424006,0.07182605,0.09576806,9.77313137,0.15765914,-0.46871635,-0.00532632
1691753488426039,0.14844051,0.02394202,9.68215179,0.15233281,-0.46978161,-0.01597897
1691753488428028,0.14844051,0.00957681,9.58638382,0.16298546,-0.52517539,-0.00532632
1691753488430042,0.05746084,-0.04788403,9.60074902,0.15765914,-0.56885123,-0.00958738
1691753488432041,0.27293900,-0.15801731,9.53849983,0.11078750,-0.64981133,-0.02556635
1691753488434008,0.28730419,-0.17717093,9.38048267,0.09906960,-0.74461985,-0.01491370
1691753488436041,0.38307226,-0.06703765,9.39484787,0.05645901,-0.79894835,-0.02024002
1691753488438012,0.34476504,-0.19632454,9.41400146,0.03408846,-0.85647261,-0.02450108
1691753488440043,0.41180268,-0.08140286,9.16979218,-0.00745685,-0.89056104,-0.02876214
1691753488442051,0.29688102,-0.14365210,9.21767616,-0.02237055,-0.89588737,-0.02876214
1691753488444056,0.32082301,-0.17717093,9.13627338,-0.05219796,-0.87351686,0.01597897
1691753488446059,0.20590134,-0.00478840,9.12669659,-0.04900216,-0.82451469,0.00213053
1691753488448016,-0.02873042,-0.00957681,9.22246456,-0.02130529,-0.76272935,0.05965481
1691753488450018,-0.13407530,-0.04309563,9.14585018,-0.01810949,-0.67750818,0.03195793
1691753488452079,-0.12449849,0.07182605,9.09796619,0.00106526,-0.62957126,0.01597897
1691753488454171,-0.34476504,0.06703765,9.23682976,0.02237055,-0.52517539,0.03089267
1691753488456059,-0.37828386,0.07661445,9.19373417,0.02876214,-0.46658581,0.01171791
1691753488457991,-0.25378537,0.23463176,9.39005947,0.07243798,-0.40373522,0.01597897
1691753488460038,-0.45968673,0.11492168,9.33738708,0.08841695,-0.33981934,0.00106526
1691753488462166,-0.27293900,0.22984336,9.24161816,0.11930962,-0.28549087,0.00532632
1691753488464053,-0.39743748,0.13407530,9.46188545,0.16724652,-0.23435818,0.01171791
1691753488466038,-0.43095630,0.17238252,9.32302189,0.18642128,-0.19600865,-0.01491370
1691753488468017,-0.15801731,0.36870706,9.37090588,0.18642128,-0.18216021,-0.00106526
1691753488470109,-0.31124622,0.13407530,9.44273186,0.18748654,-0.18429075,0.00106526
1691753488472059,-0.29209262,0.04309563,9.31344414,0.22690132,-0.18216021,-0.01597897
1691753488474042,-0.06224924,0.34476504,9.41878986,0.26418558,-0.16937704,-0.02343582
1691753488476037,-0.08619126,0.42137951,9.36132908,0.27483824,-0.15020229,0.03515373
1691753488478033,-0.07661445,0.53630120,9.29429054,0.36325517,-0.12570120,0.06817693
1691753488480069,-0.12449849,0.44053310,9.31344414,0.51665324,-0.03302320,0.07882957
1691753488482038,-0.19632454,0.71826053,9.35175228,0.61146176,0.07243798,0.02876214
1691753488484028,-0.24420857,0.78529817,9.34696388,0.65087658,0.16937704,0.03728426
1691753488486068,-0.38307226,0.46447513,9.25119495,0.72011876,0.25992453,0.01065264
1691753488488053,-0.50278234,0.51235914,9.33259869,0.81492728,0.34088463,-0.01384844
1691753488490104,-0.45489833,0.36391866,9.23682976,0.82451469,0.40799627,-0.01384844
1691753488492038,-0.37828386,0.23463176,9.30386734,0.72011876,0.45699844,0.05432849
1691753488494044,-0.58418524,-0.11971009,9.18894577,0.67537767,0.47617319,0.06072007
1691753488496070,-0.32082301,-0.22026655,8.89206505,0.62424499,0.47723848,0.08415589
1691753488497999,-0.21547815,-0.16759412,9.31344414,0.59761333,0.44101948,0.05432849
1691753488500020,-0.20590134,-0.29688102,9.09796619,0.49534798,0.40906155,-0.00106526
1691753488502096,0.16280572,-0.48362875,8.97825623,0.41864893,0.32277513,-0.03195793
1691753488504067,-0.13886370,-0.49320555,9.20809937,0.38136467,0.26418558,-0.05326322
1691753488506169,0.29209262,-0.28251579,9.27992535,0.29933929,0.20240024,-0.08948221
1691753488508031,0.18195933,-0.64643449,9.29429054,0.20026971,0.14381070,-0.09693906
1691753488510073,0.15801731,-0.51714754,9.39005947,0.14594123,0.08522116,-0.08948221
1691753488512068,0.19632454,-0.46926352,9.44752026,0.10333065,0.05965481,-0.09161274
1691753488514067,0.21547815,-0.56024319,9.42357826,0.05752428,0.04580637,-0.11185277
1691753488516079,0.18195933,-0.29688102,9.58159542,0.03834952,0.02450108,-0.10226539
1691753488517992,0.02873042,-0.46926352,9.61032581,0.03195793,0.05858954,-0.09054748
1691753488520180,0.21547815,-0.10055647,9.51455784,-0.01278317,0.08096009,-0.08202536
1691753488522105,0.05267244,-0.02873042,9.70130539,-0.03195793,0.08841695,-0.05219796
1691753488524029,0.00000000,-0.18195933,9.61511421,0.00000000,0.11504856,-0.05965481
1691753488526022,0.20111294,0.05746084,9.71088219,-0.00745685,0.14807175,-0.08522116
1691753488528073,-0.14844051,0.10534488,9.95030212,-0.01810949,0.16405073,-0.05645901
1691753488530069,0.14365210,-0.17238252,9.79228497,-0.00532632,0.11930962,-0.04474111
1691753488532045,-0.05267244,-0.10534488,10.07480049,-0.01065264,0.13954964,-0.03941479
1691753488534027,0.16759412,0.17238252,9.92636013,-0.04261058,0.14700650,-0.06178534
1691753488536014,0.24420857,-0.04788403,9.93114853,-0.05752428,0.14168017,-0.03195793
1691753488538064,-0.15801731,0.10534488,10.28070164,-0.06604639,0.10013486,-0.04793690
1691753488540075,0.10055647,0.03830723,10.12268448,-0.07350325,0.11291803,-0.06711166
1691753488542040,0.13407530,-0.01915361,10.24239445,-0.10226539,0.13848437,-0.06285060
1691753488544059,-0.00957681,0.19153613,10.38604736,-0.10013486,0.09906960,-0.05752428
1691753488546175,0.30166942,0.04788403,10.26154804,-0.10652644,0.06817693,-0.06817693
1691753488548026,0.03830723,0.00478840,10.43393135,-0.11824435,0.05645901,-0.09054748
1691753488550116,0.14365210,0.30166942,10.31900978,-0.14487596,0.05752428,-0.07989483
1691753488552102,0.20111294,-0.30645782,10.40998936,-0.14913702,0.01171791,-0.06817693
1691753488554058,0.11492168,0.11971009,10.34774017,-0.15233281,-0.01171791,-0.07989483
1691753488556059,0.14844051,-0.13407530,10.48660374,-0.16192019,-0.00958738,-0.06178534
1691753488557993,0.14844051,-0.20111294,10.44350815,-0.16192019,-0.02237055,-0.05752428
1691753488560014,0.25378537,0.35913026,10.33337498,-0.16618125,-0.03195793,-0.06178534
1691753488562087,0.15801731,-0.10534488,10.44350815,-0.17789917,-0.02450108,-0.06498113
1691753488564153,0.07661445,0.08140286,10.37647057,-0.18109496,-0.01384844,-0.06498113
1691753488566091,0.20111294,0.16759412,10.45308495,-0.17896442,-0.00426106,-0.05219796
1691753488568093,-0.02394202,-0.22026655,10.49139214,-0.16831177,-0.00958738,-0.05219796
1691753488570062,0.15322891,0.40222588,10.41477776,-0.15872440,-0.00958738,-0.06072007
1691753488572133,0.14844051,0.04788403,10.58716011,-0.15446334,0.00745685,-0.06072007
1691753488574037,0.11013328,0.20590134,10.50575733,-0.13635385,-0.00319579,-0.05539375
1691753488576011,0.29209262,0.37828386,10.59673691,-0.14594123,-0.01065264,-0.05006743
1691753488578026,0.01436521,-0.19632454,10.63025570,-0.15233281,-0.00639159,-0.04793690
1691753488580070,0.17717093,0.34476504,10.53927612,-0.12783173,-0.00106526,-0.04261058
1691753488582075,0.20111294,-0.03351882,10.65898609,-0.12783173,0.00319579,-0.05432849
1691753488584018,0.08619126,0.05746084,10.56321812,-0.13315806,0.00426106,-0.04367584
1691753488586070,0.19632454,0.41180268,10.52969933,-0.13954964,0.00426106,-0.05219796
1691753488588049,-0.00478840,-0.17717093,10.51054573,-0.14487596,0.00213053,-0.04048005
1691753488590056,0.13407530,0.21547815,10.42914295,-0.15126754,0.00745685,-0.03408846
1691753488592016,0.12928689,-0.08140286,10.56800652,-0.15446334,0.00106526,-0.04154531
1691753488594037,0.06224924,-0.24420857,10.48181534,-0.17896442,-0.00106526,-0.04687164
1691753488596140,0.22505496,0.26336220,10.53927612,-0.18961707,0.00426106,-0.04580637
1691753488598029,0.03351882,-0.27293900,10.59194851,-0.19494340,0.00106526,-0.05006743
1691753488600030,0.21547815,0.19153613,10.63983250,-0.22583605,0.00852212,-0.05326322
1691753488602101,0.13407530,0.01915361,10.68292809,-0.23009712,0.00000000,-0.05113269
1691753488604074,0.07182605,-0.29688102,10.54885292,-0.23329291,-0.02237055,-0.05752428
1691753488606069,0.25857377,0.21547815,10.63025570,-0.23542345,-0.05006743,-0.05432849
1691753488608037,0.08140286,-0.16280572,10.69250488,-0.22370553,-0.07563377,-0.04687164
1691753488610020,0.26815060,0.06703765,10.52491093,-0.21411815,-0.08309063,-0.03195793
1691753488612069,0.22984336,0.17238252,10.59673691,-0.20026971,-0.09267800,-0.02876214
1691753488614035,0.22984336,0.04309563,10.47702694,-0.17470337,-0.10439591,-0.02663161
1691753488616016,0.27772740,0.28251579,10.49618053,-0.17150757,-0.09906960,-0.02556635
1691753488617994,0.09576806,0.05746084,10.56321812,-0.16724652,-0.08841695,-0.01384844
1691753488620065,0.19632454,0.00000000,10.36210537,-0.14700650,-0.08735169,-0.00958738
1691753488622070,0.14365210,0.13886370,10.44350815,-0.16831177,-0.09161274,0.00852212
1691753488624047,-0.04309563,-0.33039984,10.48660374,-0.24074976,-0.12250541,0.00319579
1691753488626045,0.15801731,-0.20111294,10.46745014,-0.30892667,-0.15872440,0.02556635
1691753488628029,-0.05267244,-0.27772740,10.56800652,-0.34940675,-0.17896442,0.00745685
1691753488630144,0.22984336,-0.17717093,10.46745014,-0.38775626,-0.17363811,0.01491370
1691753488632086,0.20590134,-0.03830723,10.51533413,-0.39734364,-0.16937704,0.02876214
1691753488634031,0.04788403,-0.17717093,10.47223854,-0.39627838,-0.14274544,0.05645901
1691753488636039,0.22984336,0.10055647,10.33337498,-0.34514567,-0.10652644,0.05539375
1691753488638031,-0.08619126,0.18674773,10.26633644,-0.25140241,-0.06498113,0.07350325
1691753488640047,-0.02394202,0.25857377,10.06043530,-0.13635385,-0.03621899,0.07882957
1691753488642017,0.00000000,0.45489833,10.02212811,-0.04154531,-0.01491370,0.04367584
1691753488644104,-0.08619126,0.64164603,9.93593693,0.04900216,0.03302320,0.04687164
1691753488646072,-0.01915361,0.41659111,9.76355457,0.12996227,0.02237055,0.02343582
1691753488648068,-0.13407530,0.60812724,9.64384460,0.21624868,0.03408846,0.01384844
1691753488650099,-0.07661445,0.52672440,9.56244183,0.25992453,0.05219796,0.01065264
1691753488652092,0.00478840,0.47884035,9.51934624,0.27057716,0.05432849,0.01597897
1691753488654078,0.02394202,0.61770403,9.38527107,0.28016454,0.02982740,0.00958738
1691753488656021,0.08619126,0.24420857,9.37569427,0.27803403,0.03408846,0.02237055
1691753488658059,0.04788403,0.42616791,9.32781029,0.24181503,0.03089267,0.04580637
1691753488660022,0.21547815,0.22026655,9.36611748,0.19600865,-0.01810949,0.02343582
1691753488662185,0.14365210,-0.22026655,9.38048267,0.14913702,-0.01065264,0.05539375
1691753488664052,0.15801731,-0.06703765,9.41400146,0.09480853,-0.03621899,0.03834952
1691753488666178,0.24899697,-0.35913026,9.61032581,0.01171791,-0.02769688,0.04687164
1691753488668017,0.01915361,-0.39264908,9.58159542,-0.01491370,-0.01917476,0.05326322
1691753488670196,0.10534488,-0.03351882,9.49540424,-0.00852212,-0.01917476,0.03728426
1691753488672054,0.22026655,-0.04309563,9.60074902,0.00000000,-0.02450108,0.04474111
1691753488674097,0.10055647,0.08619126,9.51455784,0.01384844,-0.01810949,0.02663161
1691753488676018,0.22505496,0.02394202,9.51455784,0.05752428,-0.04261058,0.05432849
1691753488678032,0.14365210,-0.08140286,9.65342140,0.07137272,-0.08522116,0.04793690
1691753488680115,0.11013328,0.04309563,9.56244183,0.00852212,-0.11291803,0.07776430
1691753488682045,0.15322891,-0.35913026,9.89762974,-0.03195793,-0.15233281,0.07563377
1691753488684111,0.15801731,-0.37349546,9.83059216,-0.07776430,-0.19600865,0.07989483
1691753488686024,0.41180268,-0.29209262,10.03170490,-0.16618125,-0.23861924,0.06072007
1691753488688140,0.25857377,-0.35434186,10.22802925,-0.23861924,-0.26418558,0.05965481
1691753488690069,0.36391866,-0.22505496,10.20887566,-0.29507825,-0.29827404,0.06285060
1691753488692020,0.22984336,-0.53151280,10.34774017,-0.32810146,-0.29294771,0.05752428
1691753488694057,0.23942018,-0.25857377,10.41956615,-0.35473305,-0.29827404,0.04261058
1691753488696082,0.24899697,-0.38307226,10.36210537,-0.34514567,-0.27909929,0.05006743
1691753488698050,0.13886370,-0.26815060,10.40998936,-0.33023196,-0.25672874,0.04580637
1691753488700031,0.17717093,0.18674773,10.28070164,-0.24394555,-0.25033715,0.04261058
1691753488702118,0.04788403,-0.05267244,10.29985619,-0.17576863,-0.24607609,0.04474111
1691753488704086,0.00478840,0.40701428,10.29027843,-0.12463594,-0.23116238,0.07350325
1691753488706057,0.04788403,0.18195933,10.16578007,-0.08202536,-0.22157501,0.04367584
1691753488708000,0.12928689,0.30166942,10.22324085,-0.01597897,-0.21944447,0.06178534
1691753488710026,0.05746084,0.45489833,10.14662647,0.04261058,-0.21518342,0.08096009
1691753488712079,0.01915361,0.23463176,10.04607010,0.11078750,-0.19387813,0.08202536
1691753488714094,0.01915361,0.80445176,10.07001209,0.16405073,-0.18322548,0.08841695
1691753488716164,0.01915361,0.48841715,10.00776291,0.27590349,-0.15126754,0.13635385
1691753488718000,0.11971009,1.03429508,10.21845245,0.47830373,-0.12889700,0.14807175
1691753488720079,-0.11013328,1.13963997,10.48181534,0.74142402,-0.05645901,0.10120012
1691753488722058,0.01915361,1.23540807,10.58237171,0.91932321,-0.01065264,0.09267800
1691753488724098,-0.24420857,1.26413846,10.60152531,1.10894024,0.03941479,0.16511598
1691753488726120,-0.18195933,0.99119949,10.41956615,1.18137825,0.09587380,0.10865697
1691753488728070,-0.32082301,0.97683430,10.35252857,1.18776989,0.12676647,-0.00213053
1691753488730091,-0.43574470,0.56503159,10.28070164,1.13131082,0.15765914,0.02876214
1691753488732087,-0.06224924,0.31603462,10.23281765,1.05141604,0.19494340,0.07456851
1691753488734022,-0.25378537,0.02394202,9.90241814,0.95767272,0.24820662,0.05752428
1691753488736092,-0.12928689,-0.15322891,9.86889935,0.86286420,0.23648870,0.04048005
1691753488738113,-0.23463176,-0.23463176,10.02212811,0.71159667,0.26525083,0.00106526
1691753488740056,-0.16280572,-0.45968673,9.85453415,0.55287224,0.22903186,0.08841695
1691753488742065,-0.13886370,-0.71826053,9.76355457,0.42504051,0.18642128,0.00958738
1691753488744057,-0.03351882,-0.60812724,9.73482418,0.32064459,0.14381070,0.01171791
1691753488746097,0.12928689,-0.68474168,9.76355457,0.23329291,0.08202536,0.01491370
1691753488748010,0.04788403,-0.63206923,9.61990261,0.14913702,0.03728426,-0.01917476
1691753488750050,0.39743748,-0.59855044,9.64863300,0.10013486,-0.02343582,-0.00426106
1691753488752092,0.22505496,-0.55545479,9.62469101,0.07563377,-0.05752428,-0.02876214
1691753488754116,0.32561144,-0.20590134,9.42836666,0.07030746,-0.09800433,0.01384844
1691753488756091,0.44053310,-0.39743748,9.65342140,0.02663161,-0.12676647,0.00745685
1691753488758001,0.15322891,-0.22505496,9.52892303,0.01171791,-0.08841695,-0.02876214
1691753488760065,0.26815060,-0.42137951,9.31823349,0.00745685,-0.11824435,0.00106526
1691753488762119,0.03351882,-0.27293900,9.52892303,-0.00852212,-0.09906960,-0.03515373
1691753488764190,-0.05267244,-0.19632454,9.34696388,-0.01171791,-0.08096009,-0.02663161
1691753488766023,0.05267244,-0.51235914,9.40442467,-0.02982740,-0.05858954,-0.01917476
1691753488768025,-0.04788403,0.00957681,9.35175228,-0.03941479,-0.03089267,-0.02556635
1691753488770084,0.04788403,-0.26815060,9.32781029,-0.01278317,-0.03728426,-0.02450108
1691753488772229,-0.11971009,-0.26815060,9.46188545,-0.06072007,-0.00426106,-0.02237055
1691753488774092,-0.02394202,0.12449849,9.36611748,-0.06391586,-0.01278317,-0.01917476
1691753488776020,-0.05267244,-0.31603462,9.41400146,-0.05965481,0.00000000,-0.01597897
1691753488778047,-0.07661445,0.07661445,9.40442467,-0.07563377,0.00745685,0.00319579
1691753488780052,0.11013328,0.09097967,9.40921307,-0.10226539,0.00745685,-0.01278317
1691753488782094,-0.05267244,-0.15322891,9.46188545,-0.09587380,0.02024002,-0.00426106
1691753488784032,0.11971009,0.17717093,9.43794346,-0.10652644,0.01065264,-0.00213053
1691753488786082,0.01436521,-0.09576806,9.52413464,-0.15765914,0.02237055,-0.00639159
1691753488788040,-0.04309563,-0.11971009,9.46667385,-0.19387813,0.00639159,0.00213053
1691753488790051,0.13886370,-0.18674773,9.65820980,-0.25459820,-0.02343582,0.01491370
1691753488792057,-0.16280572,-0.51714754,9.77791977,-0.35473305,-0.04793690,0.00319579
1691753488794039,0.21547815,-0.32561144,9.80665016,-0.46232477,-0.07776430,0.00852212
1691753488796145,0.09576806,-0.49320555,10.20408726,-0.52624065,-0.10652644,0.02237055
1691753488798028,0.12928689,-0.48362875,10.04607010,-0.61465758,-0.14061491,0.00426106
1691753488800028,0.40222588,-0.30166942,10.36689377,-0.64874601,-0.14913702,-0.01171791
1691753488802052,0.02873042,-0.40222588,10.49139214,-0.72011876,-0.17150757,0.00106526
1691753488804084,0.33039984,-0.20590134,10.33816338,-0.74035877,-0.17363811,-0.00213053
1691753488806029,0.15322891,-0.27293900,10.64940929,-0.74355459,-0.15978967,0.00532632
1691753488808030,0.07182605,-0.13886370,10.54885292,-0.72011876,-0.12996227,0.00000000
1691753488810027,0.31124622,0.06224924,10.60631371,-0.67857343,-0.13528858,0.02450108
1691753488812047,-0.03351882,0.12928689,10.64462090,-0.63596284,-0.11930962,-0.00106526
1691753488814066,0.22505496,0.27772740,10.60631371,-0.52730590,-0.09906960,0.00532632
1691753488816067,0.07661445,0.31124622,10.71165848,-0.50387007,-0.09906960,0.00532632
1691753488818017,0.07182605,0.52193600,10.40520096,-0.43675843,-0.09480853,0.02876214
1691753488820059,0.22026655,0.42616791,10.55364132,-0.38349521,-0.09800433,0.04261058
1691753488822059,-0.10055647,0.32082301,10.62546730,-0.33129725,-0.09374327,0.03834952
1691753488824015,0.11971009,0.54587799,10.31422138,-0.29081720,-0.07669904,0.06072007
1691753488826032,-0.02394202,0.52672440,10.58716011,-0.25033715,-0.08841695,0.04900216
1691753488828030,-0.14365210,0.29688102,10.28549004,-0.22157501,-0.08841695,0.05219796
1691753488830176,0.23463176,0.56981999,10.30943298,-0.20453078,-0.04580637,0.03621899
1691753488832047,-0.24899697,0.31603462,10.42914295,-0.17257284,-0.04900216,0.06924219
1691753488834023,0.11971009,0.36391866,10.03649330,-0.17470337,-0.04793690,0.05539375
1691753488836043,0.02394202,0.48841715,10.39083576,-0.13741912,-0.01491370,0.06391586
1691753488837962,-0.16759412,0.07661445,10.04607010,-0.10120012,-0.00639159,0.05432849
1691753488840054,0.32082301,0.52672440,10.00776291,-0.08522116,-0.01278317,0.04793690
1691753488842034,-0.29209262,0.33039984,10.27591324,-0.05539375,0.00000000,0.05965481
1691753488844057,-0.04788403,0.11013328,9.73961258,-0.02876214,0.01384844,0.03834952
1691753488846131,0.05746084,0.57460839,10.09395409,0.00532632,0.01278317,0.03302320
1691753488848103,-0.21068975,0.10534488,9.96466732,0.03621899,0.00106526,0.03728426
1691753488850029,0.20590134,0.28730419,9.78749657,0.05645901,-0.00745685,0.03834952
1691753488852113,-0.05746084,0.33518824,10.11789608,0.07989483,0.00745685,0.03728426
1691753488854095,0.07182605,0.10055647,9.70609379,0.10226539,-0.00639159,0.03941479
1691753488856036,0.17717093,0.39264908,9.92157173,0.09800433,-0.01278317,0.04687164
1691753488858002,-0.18195933,-0.07661445,9.91678333,0.12357067,-0.01810949,0.03941479
1691753488860028,0.05746084,0.20111294,9.68215179,0.16085494,0.00745685,0.03728426
1691753488862090,-0.06224924,0.62728083,10.00776291,0.25779399,0.04687164,0.10652644
1691753488864036,-0.09576806,0.44053310,9.98860931,0.37816888,0.09693906,0.15659387
1691753488866039,-0.11492168,0.77093297,10.38125896,0.59441757,0.15233281,0.14061491
1691753488868020,-0.33997664,0.93852705,10.66856289,0.76485986,0.30786142,0.04048005
1691753488870137,-0.07661445,1.03429508,10.73081207,0.88949579,0.36858150,0.05113269
1691753488872067,-0.42137951,0.78050977,10.72602367,1.06100333,0.40799627,0.00745685
1691753488874026,-0.33997664,1.02471828,10.44350815,1.16433406,0.49960902,0.08841695
1691753488876054,-0.43095630,0.81402856,10.70687008,1.16113818,0.52517539,0.10865697
1691753488878020,-0.50278234,0.52672440,10.56321812,1.14942038,0.59015650,0.23648870
1691753488880058,-0.31603462,0.33997664,10.38125896,1.07804763,0.61359233,0.15339808
1691753488882060,-0.33997664,0.03830723,10.55842972,0.97578222,0.60080916,0.25566345
1691753488884030,-0.06703765,-0.03351882,10.63025570,0.79255676,0.53369749,0.14487596
1691753488886052,-0.03830723,-0.83797061,10.82179165,0.64874601,0.54541540,0.09480853
1691753488888056,0.01436521,-0.56981999,10.53448772,0.54435015,0.40693101,0.05113269
1691753488890041,0.53151280,-0.56981999,10.69729328,0.42930156,0.27164242,-0.01917476
1691753488892124,0.32082301,-0.79487497,10.62067890,0.33449304,0.16511598,-0.07989483
1691753488894046,0.46926352,-0.79008657,10.57279491,0.21731395,0.08096009,-0.11078750
1691753488896127,0.75177932,-0.68474168,10.34774017,0.14594123,-0.02769688,-0.07350325
1691753488898057,0.76614451,-0.48841715,10.34774017,0.09374327,-0.08096009,-0.12463594
1691753488900033,0.46447513,-0.68953007,9.98860931,0.10865697,-0.12996227,-0.07669904
1691753488902145,0.79487497,-0.26336220,10.15620327,0.08202536,-0.12676647,-0.12144014
1691753488904056,0.40222588,-0.38786069,9.88326454,0.03515373,-0.09693906,-0.07137272
1691753488906064,0.40222588,-0.58418524,9.52892303,-0.00852212,-0.10546118,-0.09587380
1691753488908108,0.37349546,-0.18195933,9.90720654,0.00106526,-0.09906960,-0.07456851
1691753488910051,0.00478840,-0.49320555,9.64384460,-0.00213053,-0.06072007,-0.09587380
1691753488912093,0.19153613,-0.08140286,9.43794346,-0.05113269,-0.05219796,-0.04474111
1691753488914104,-0.01436521,-0.21068975,9.68694019,-0.05113269,-0.05539375,-0.07563377
1691753488916037,-0.00478840,-0.24899697,9.36611748,-0.05539375,-0.04900216,-0.04580637
1691753488918020,0.10055647,0.05746084,9.61511421,-0.09161274,-0.02982740,-0.07882957
1691753488920031,-0.04309563,-0.27772740,9.59117222,-0.12889700,-0.02876214,-0.08096009
1691753488922062,0.12449849,-0.07182605,9.38048267,-0.11717909,-0.06817693,-0.08096009
1691753488924071,0.06224924,-0.12928689,9.67736340,-0.14487596,-0.02982740,-0.09054748
1691753488926030,0.19153613,-0.14365210,9.50976944,-0.18002969,-0.02237055,-0.10865697
1691753488928032,0.26336220,-0.06224924,9.61990261,-0.16618125,-0.04687164,-0.08309063
1691753488930088,-0.04788403,-0.18674773,9.61990261,-0.19494340,-0.04580637,-0.07563377
1691753488932049,0.05267244,0.10534488,9.50976944,-0.19494340,-0.03195793,-0.10120012
1691753488934025,-0.06703765,-0.04309563,9.61511421,-0.17789917,-0.01597897,-0.07776430
1691753488936074,-0.04309563,-0.05746084,9.47625065,-0.18216021,-0.02769688,-0.06072007
1691753488938037,0.02394202,-0.07661445,9.48582745,-0.19813919,-0.03515373,-0.08841695
1691753488940008,-0.05746084,-0.18674773,9.51455784,-0.19068234,-0.00745685,-0.08522116
1691753488942050,0.08619126,-0.01915361,9.40921307,-0.18109496,0.01384844,-0.05645901
1691753488944053,-0.01436521,0.01915361,9.45709705,-0.20666130,0.01171791,-0.08202536
1691753488946152,0.03830723,0.20590134,9.38527107,-0.21198763,0.02343582,-0.08948221
1691753488948020,0.01915361,0.11013328,9.49061584,-0.21837921,0.05645901,-0.05113269
1691753488950029,-0.11013328,-0.03351882,9.58159542,-0.23968449,0.05752428,-0.05219796
1691753488952096,0.19153613,-0.07182605,9.49540424,-0.32064459,0.07669904,-0.04154531
1691753488954123,-0.03830723,-0.22505496,9.73003578,-0.36325517,0.07669904,-0.03515373
1691753488956058,-0.08619126,-0.21547815,9.67257500,-0.41545314,0.07243798,-0.03728426
1691753488957970,0.19153613,-0.25378537,9.78270817,-0.44528052,0.05752428,-0.03834952
1691753488960035,-0.30166942,-0.32082301,9.89284134,-0.48256478,0.01491370,-0.02343582
1691753488962070,0.16759412,-0.22984336,9.69172859,-0.50280482,-0.00532632,-0.02876214
1691753488964084,0.03351882,-0.14365210,9.96466732,-0.48469532,-0.04687164,-0.04367584
1691753488966028,0.05267244,0.16280572,9.76355457,-0.46765110,-0.05858954,-0.02556635
1691753488968023,0.48362875,0.13407530,9.74918938,-0.44634581,-0.11291803,-0.01491370
1691753488970175,-0.09576806,0.19153613,9.92636013,-0.43782368,-0.11504856,-0.00639159
1691753488972143,0.27772740,0.29688102,9.64863300,-0.38775626,-0.11611383,0.00745685
1691753488974043,0.12928689,0.01915361,9.84974575,-0.37816888,-0.12037488,-0.00745685
1691753488976026,-0.02394202,0.35434186,9.72045898,-0.35260254,-0.10759171,0.00532632
1691753488978043,0.24899697,0.19153613,9.70130539,-0.28868666,-0.10652644,-0.00745685
1691753488980034,-0.19153613,0.19153613,9.80186176,-0.27590349,-0.08202536,-0.00852212
1691753488982167,0.05267244,0.52193600,9.45709705,-0.24820662,-0.04474111,0.00319579
1691753488984042,0.01915361,0.10534488,9.59596062,-0.19281286,-0.00852212,0.00958738
1691753488986054,-0.18195933,0.40701428,9.39963627,-0.11930962,0.02450108,0.01065264
1691753488988054,0.09097967,0.41659111,9.32302189,-0.05858954,0.04793690,0.00958738
1691753488990175,-0.17238252,0.43574470,9.47625065,0.00958738,0.10226539,0.00213053
1691753488992050,-0.11492168,0.36391866,9.16021538,0.04900216,0.13954964,0.01491370
1691753488994054,-0.05267244,0.22026655,9.31344414,0.06178534,0.15233281,0.00745685
1691753488996096,-0.24420857,0.37349546,9.37090588,0.08096009,0.15126754,0.00532632
1691753488998029,-0.19632454,0.03830723,9.29907894,0.09480853,0.16511598,0.00000000
1691753489000032,-0.22505496,0.21068975,9.40442467,0.10226539,0.15339808,0.03302320
1691753489002209,-0.18674773,0.22984336,9.40921307,0.07989483,0.11717909,0.00426106
1691753489004110,0.00957681,0.11971009,9.51455784,0.01065264,0.12570120,0.02556635
1691753489006240,0.17717093,0.22505496,9.57680702,-0.00106526,0.07563377,0.02343582
1691753489008034,0.05746084,-0.07182605,9.43794346,-0.02024002,0.07243798,0.01810949
1691753489010040,0.25378537,0.14365210,9.49061584,-0.04474111,0.05432849,0.00213053
1691753489012087,0.07182605,-0.00478840,9.64863300,-0.05219796,0.02876214,0.02024002
1691753489014087,0.35913026,0.16280572,9.56723022,-0.05858954,0.01704423,0.02130529
1691753489016125,0.22505496,0.01915361,9.70609379,-0.06178534,0.01491370,0.01704423
1691753489018003,0.19632454,0.13886370,9.56244183,-0.05752428,-0.00213053,0.02663161
1691753489020104,0.28251579,0.22984336,9.59117222,-0.04687164,-0.00213053,0.02450108
1691753489022125,0.00478840,0.08140286,9.79707336,-0.03302320,0.02343582,0.03408846
1691753489024029,0.07661445,0.24420857,9.61032581,-0.02450108,0.01704423,0.01065264
1691753489026037,0.23942018,0.13886370,9.72045898,-0.00426106,0.02663161,0.00958738
1691753489028060,-0.15801731,-0.06224924,9.82580376,-0.01704423,0.03195793,0.00745685
1691753489030244,0.10055647,0.14365210,9.65342140,-0.02450108,0.02450108,0.00000000
1691753489032086,-0.12449849,-0.03351882,9.91678333,-0.01597897,0.04048005,0.00319579
1691753489034044,-0.11971009,0.20590134,9.76834297,-0.01597897,0.03195793,0.00532632
1691753489036031,0.22505496,0.21547815,9.80186176,-0.01384844,0.03728426,0.00852212
1691753489038111,-0.05267244,0.09097967,9.99339771,-0.01384844,0.04367584,0.00639159
1691753489040045,0.13407530,0.18674773,9.74918938,-0.00106526,0.03834952,0.00532632
1691753489042026,0.03351882,-0.09576806,10.01733971,-0.01065264,0.04048005,0.00000000
1691753489044051,-0.18195933,0.08140286,9.99818611,0.00106526,0.05432849,0.00745685
1691753489046090,0.15322891,0.03830723,9.87847614,0.00426106,0.06817693,-0.00213053
1691753489048062,-0.07182605,0.03830723,10.17056847,0.00958738,0.07137272,-0.00532632
1691753489050101,0.10534488,0.22505496,9.95987892,0.02556635,0.07776430,-0.00106526
1691753489052110,0.15322891,0.01915361,10.14183807,0.04048005,0.07456851,0.00532632
1691753489054096,-0.16759412,0.09097967,10.19451046,0.03834952,0.07776430,0.01171791
1691753489056115,0.11013328,0.09097967,9.94072533,0.01917476,0.06711166,0.02450108
1691753489058055,-0.09576806,-0.07661445,10.24239445,-0.00532632,0.04367584,0.02982740
1691753489060009,0.02873042,0.08140286,10.08437729,-0.04048005,0.01597897,0.02343582
1691753489062175,0.30166942,-0.10534488,10.19929886,-0.08096009,-0.00319579,0.02024002
1691753489064075,-0.08140286,-0.02394202,10.35731697,-0.10652644,-0.02237055,0.02130529
1691753489066043,0.32082301,0.03351882,10.18972206,-0.12144014,-0.03089267,0.01384844
1691753489068024,0.14844051,-0.18674773,10.35252857,-0.12037488,-0.03515373,0.01491370
1691753489070158,0.10055647,0.21547815,10.21366405,-0.12144014,-0.02556635,0.00532632
1691753489072081,0.23463176,0.15322891,10.13226128,-0.07137272,-0.02769688,0.02237055
1691753489074102,-0.05267244,0.23463176,10.18014526,-0.03941479,-0.01065264,0.00426106
1691753489076062,0.20590134,0.40701428,9.98860931,0.00532632,0.00000000,0.00958738
1691753489078061,0.04788403,-0.01915361,10.20887566,0.02982740,-0.00213053,0.00106526
1691753489080058,-0.04788403,0.36870706,10.05085850,0.04580637,0.00639159,0.02130529
1691753489082042,0.12928689,0.06703765,10.10353088,0.05326322,0.01278317,0.01491370
1691753489084058,-0.12928689,0.11492168,10.14183807,0.05432849,0.01278317,0.02450108
1691753489086087,0.13407530,0.34476504,9.98860931,0.03621899,0.02130529,0.00532632
1691753489088071,0.00957681,-0.11971009,10.21366405,0.02024002,0.04474111,0.00745685
1691753489090078,0.00957681,0.26336220,10.07480049,0.01810949,0.03621899,0.01917476
1691753489092066,0.13407530,0.00000000,10.14183807,-0.00213053,0.04687164,0.01917476
1691753489094060,-0.15801731,-0.10055647,10.17535686,-0.01171791,0.03089267,0.00319579
1691753489096099,0.08619126,0.21068975,10.06522369,-0.01171791,0.02556635,-0.01171791
1691753489098065,0.05746084,-0.24899697,10.19929886,0.00213053,0.00426106,-0.01810949
1691753489100037,0.10055647,0.15801731,10.06043530,0.00532632,-0.02024002,-0.03302320
1691753489102101,0.23463176,0.07182605,10.17535686,0.02876214,-0.05752428,-0.02556635
1691753489104153,-0.00957681,0.00478840,10.15141487,0.06178534,-0.06178534,-0.00213053
1691753489106090,0.09576806,0.39743748,9.99818611,0.09374327,-0.06391586,0.00532632
1691753489108024,0.08140286,-0.02873042,10.09395409,0.12996227,-0.07030746,0.01384844
1691753489110035,0.09576806,0.30645782,9.95030212,0.14807175,-0.06178534,0.00852212
1691753489112108,0.24899697,0.21547815,10.01255131,0.15765914,-0.03834952,0.00745685
1691753489114101,0.03351882,0.09097967,10.00297451,0.15552860,-0.01065264,-0.02237055
1691753489116116,0.09576806,0.42616791,9.87368774,0.18429075,0.00000000,0.01278317
1691753489118060,-0.10534488,-0.06224924,10.00297451,0.13954964,0.01597897,0.00213053
1691753489120103,-0.14844051,0.09097967,9.88326454,0.13954964,0.00958738,0.04048005
1691753489122124,0.07661445,-0.07182605,9.95987892,0.12037488,0.02450108,0.04048005
1691753489124099,-0.09097967,-0.31124622,9.95987892,0.08202536,0.00213053,0.05858954
1691753489126054,0.12928689,0.07182605,9.97903252,0.03621899,-0.00532632,0.04261058
1691753489128131,-0.01436521,-0.20590134,10.09874249,0.01917476,-0.01810949,0.02343582
1691753489130088,0.02394202,0.11013328,9.95509052,0.00958738,-0.02769688,0.00213053
1691753489132101,0.16759412,0.14365210,10.04128170,0.01384844,-0.04154531,0.00639159
1691753489134032,-0.05746084,-0.16759412,9.91678333,0.05432849,-0.05006743,0.01171791
1691753489136073,0.09576806,0.31603462,9.99818611,0.06817693,-0.03515373,0.00426106
1691753489138080,-0.10534488,0.16759412,9.93114853,0.10013486,-0.04261058,-0.00532632
1691753489140029,0.06703765,0.49320555,9.84974575,0.12357067,-0.02450108,0.00319579
1691753489142061,-0.08619126,0.22984336,9.97424412,0.12463594,-0.01810949,0.00745685
1691753489144036,-0.10055647,0.27772740,9.86889935,0.12996227,-0.01065264,0.00000000
1691753489146103,0.12928689,0.52672440,9.97424412,0.15020229,0.00745685,0.01917476
1691753489148039,-0.12449849,0.22505496,9.93114853,0.15552860,0.00319579,0.02237055
1691753489150164,0.14365210,0.49320555,9.78749657,0.16724652,-0.00213053,0.01171791
1691753489152093,-0.05746084,0.21068975,9.88326454,0.20666130,0.01384844,0.02237055
1691753489154207,-0.20111294,0.06224924,9.65342140,0.23968449,0.03089267,0.03089267
1691753489156075,0.10055647,0.55066639,9.66299820,0.28975192,0.03515373,0.02130529
1691753489158071,-0.23942018,0.22026655,9.67257500,0.30786142,0.05219796,0.02663161
1691753489160112,0.01436521,0.37828386,9.48582745,0.32703617,0.08096009,0.02237055
1691753489162136,0.10534488,0.37349546,9.71088219,0.32597092,0.09161274,0.02450108
1691753489164104,-0.14365210,-0.03351882,9.58159542,0.30040458,0.10226539,0.02982740
1691753489166080,0.12928689,0.20590134,9.73961258,0.24714135,0.09161274,0.03089267
1691753489168066,-0.20590134,-0.16280572,9.99818611,0.22370553,0.12250541,0.02024002
1691753489170103,-0.04309563,-0.07661445,9.67736340,0.18322548,0.09587380,0.01917476
1691753489172140,0.16280572,-0.05267244,10.18493366,0.11717909,0.08841695,0.02237055
1691753489174085,-0.21068975,-0.35434186,10.03170490,0.04367584,0.03834952,0.02663161
1691753489176047,0.34955344,-0.18195933,10.04128170,0.00213053,0.03195793,0.00958738
1691753489178039,0.00478840,-0.31603462,10.44350815,-0.02982740,0.01597897,-0.00639159
1691753489180009,0.27772740,-0.12449849,9.93593693,-0.05113269,-0.02556635,-0.00639159
1691753489182192,0.33039984,-0.05746084,10.20408726,-0.07243798,-0.06072007,-0.02024002
1691753489184059,-0.09097967,-0.11013328,10.15141487,-0.07456851,-0.06072007,-0.00639159
1691753489186120,0.33997664,0.13407530,9.76834297,-0.02982740,-0.04580637,-0.01917476
1691753489188049,0.09097967,0.21068975,10.07958889,0.02876214,-0.07776430,0.00639159
1691753489190066,0.07182605,0.37828386,9.63905621,0.10865697,-0.04793690,0.00106526
1691753489192082,0.23463176,0.32082301,9.60074902,0.20240024,-0.03515373,0.02663161
1691753489194016,-0.14844051,0.38786069,9.58159542,0.26844662,-0.01917476,0.00958738
1691753489196150,-0.04309563,0.25378537,9.20809937,0.33236250,0.02343582,0.00213053
1691753489198025,-0.11013328,0.31124622,9.49061584,0.39521310,0.04048005,-0.00958738
1691753489200041,-0.28730419,0.25857377,9.17936897,0.45273739,0.07243798,0.00106526
1691753489202084,0.02873042,0.31603462,9.07402420,0.45486790,0.09161274,-0.01384844
1691753489204133,-0.27293900,0.28730419,9.27992535,0.45912898,0.12463594,-0.01597897
1691753489206077,-0.18195933,0.11971009,8.93516064,0.46871635,0.11930962,-0.02024002
1691753489208050,0.01436521,0.41180268,9.23682976,0.38136467,0.16192019,-0.01491370
1691753489210045,-0.22984336,-0.06224924,9.33738708,0.31744879,0.18002969,-0.03941479
1691753489212092,0.06224924,-0.10534488,9.12669659,0.27483824,0.18748654,-0.01917476
1691753489214136,-0.00957681,-0.00478840,9.61032581,0.20240024,0.22796659,-0.02663161
1691753489216182,-0.05267244,-0.25378537,9.40442467,0.18216021,0.19387813,-0.02982740
1691753489218012,0.17238252,0.14844051,9.50976944,0.16831177,0.19068234,-0.02130529
1691753489220066,0.04309563,-0.16280572,9.72524738,0.16724652,0.17363811,-0.03195793
1691753489222115,0.09576806,-0.02873042,9.50976944,0.13741912,0.15446334,-0.02663161
1691753489224090,0.03830723,-0.06224924,9.78749657,0.15126754,0.09267800,-0.02769688
1691753489226050,-0.03830723,-0.25857377,9.81622696,0.15552860,0.09800433,-0.00852212
1691753489228059,0.17717093,0.16759412,9.73961258,0.14807175,0.08735169,-0.02876214
1691753489230070,0.24899697,-0.10055647,9.92157173,0.16405073,0.04367584,-0.00958738
1691753489232062,0.20590134,-0.03351882,9.74918938,0.14700650,0.05965481,-0.01171791
1691753489234044,0.21547815,0.02873042,9.80186176,0.15339808,0.06711166,-0.02876214
1691753489236057,0.10055647,-0.04788403,9.87368774,0.14274544,0.05539375,-0.01491370
1691753489238086,0.01915361,-0.00478840,9.80665016,0.13422331,0.06498113,-0.01065264
1691753489240195,-0.03351882,-0.25378537,9.92157173,0.10439591,0.06817693,-0.01704423
1691753489242051,0.03830723,0.05746084,9.86889935,0.09693906,0.07776430,-0.01704423
1691753489244079,-0.03351882,-0.10534488,9.90720654,0.07669904,0.08948221,0.00319579
1691753489246140,-0.00478840,-0.06224924,9.94072533,0.05219796,0.09374327,0.00106526
1691753489248067,0.14844051,0.04788403,9.99339771,0.02769688,0.09054748,0.01278317
1691753489250041,-0.12928689,-0.18195933,10.04607010,0.00958738,0.08522116,0.02556635
1691753489252133,-0.07661445,-0.16280572,10.09395409,-0.01704423,0.08096009,0.03408846
1691753489254140,-0.07182605,-0.22505496,10.17535686,-0.06285060,0.05113269,0.01278317
1691753489256096,-0.01915361,-0.15801731,10.21366405,-0.10333065,0.03621899,0.01278317
1691753489258030,0.19632454,-0.07661445,10.28549004,-0.12676647,0.01917476,0.00639159
1691753489260158,0.02873042,-0.23942018,10.29506683,-0.11291803,-0.01171791,0.01065264
1691753489262101,0.33518824,0.20111294,10.21845245,-0.09587380,-0.02663161,0.02343582
1691753489264071,0.24420857,0.11492168,10.25197124,-0.09480853,-0.03408846,0.02663161
1691753489266108,0.00000000,-0.01915361,10.00776291,-0.07669904,-0.01491370,0.01704423
1691753489268017,0.29209262,0.25857377,10.04128170,-0.04154531,-0.00852212,0.03302320
1691753489270127,0.03830723,0.04309563,10.07958889,-0.04367584,-0.00426106,0.01704423
1691753489272080,0.03351882,0.16759412,9.93593693,-0.04154531,-0.00426106,0.01491370
1691753489274021,0.16280572,0.00000000,10.14183807,-0.01917476,-0.00852212,0.00958738
1691753489276040,0.03351882,0.22505496,9.83538055,-0.01810949,0.00106526,0.01171791
1691753489278033,0.20111294,0.32082301,9.89762974,-0.01810949,0.00213053,0.00639159
1691753489280087,-0.02873042,-0.04788403,10.08916569,-0.01597897,0.01810949,0.00000000
1691753489282048,0.02394202,0.14844051,9.82580376,-0.01704423,0.02343582,-0.00426106
1691753489284062,0.24899697,0.09576806,10.10353088,-0.02130529,0.04048005,-0.00639159
1691753489286074,-0.25378537,-0.05267244,10.13226128,-0.02556635,0.02982740,0.00319579
1691753489288071,0.12928689,0.16280572,9.98382092,-0.04154531,0.03302320,0.00106526
1691753489290049,-0.10055647,-0.25378537,10.38125896,-0.04900216,0.04048005,0.00745685
1691753489292062,0.03351882,-0.04309563,10.12268448,-0.07030746,0.02876214,0.00532632
1691753489294051,-0.06224924,-0.31603462,10.50096893,-0.14487596,0.01704423,0.01171791
1691753489296115,-0.22505496,-0.20111294,10.46745014,-0.15446334,0.01384844,0.01597897
1691753489298054,0.23942018,0.18674773,10.18014526,-0.14487596,0.01917476,-0.00106526
1691753489300080,0.03830723,-0.11971009,10.41477776,-0.12357067,0.00213053,0.01384844
1691753489302121,-0.00478840,0.19153613,10.07958889,-0.11291803,0.01704423,-0.00852212
1691753489304140,0.30166942,0.00478840,10.03649330,-0.08841695,-0.00213053,-0.01597897
1691753489306260,-0.14365210,-0.05267244,10.17535686,-0.05965481,0.00852212,-0.03408846
1691753489308065,0.31124622,0.04309563,9.92157173,-0.00426106,0.01810949,-0.00852212
1691753489310083,0.02394202,-0.00957681,10.11310768,0.00958738,0.00639159,-0.01171791
1691753489312112,-0.07182605,0.40701428,9.88326454,0.02556635,-0.00958738,0.00106526
1691753489314310,0.28251579,0.06224924,9.88805294,0.03515373,0.01491370,-0.00639159
1691753489316092,-0.04309563,0.28730419,9.90720654,0.01171791,-0.00852212,0.01491370
1691753489318030,0.15322891,0.37828386,9.84016895,-0.00319579,-0.00319579,0.01491370
1691753489320073,0.02873042,-0.12928689,10.17535686,-0.03834952,0.02237055,0.01065264
1691753489322102,0.13886370,0.10055647,9.99339771,-0.07776430,-0.00426106,0.01597897
1691753489324126,0.28730419,-0.00478840,10.20408726,-0.10865697,0.00106526,0.01171791
1691753489326052,-0.08140286,-0.31603462,10.29985619,-0.14594123,-0.01278317,0.02769688
1691753489328044,0.15322891,-0.01436521,10.25675964,-0.20133498,-0.01810949,0.00745685
1691753489330086,0.11013328,-0.53151280,10.48660374,-0.24820662,-0.05539375,0.00426106
1691753489332063,0.00000000,-0.29209262,10.43871975,-0.26525083,-0.06817693,0.00426106
1691753489334081,0.14844051,-0.39264908,10.47702694,-0.28975192,-0.10013486,0.00106526
1691753489336032,0.20590134,-0.18195933,10.47223854,-0.30040458,-0.10652644,-0.00958738
1691753489338067,0.09576806,-0.10534488,10.27591324,-0.27164242,-0.11185277,0.00852212
1691753489340066,0.08140286,-0.12928689,10.22324085,-0.21944447,-0.12996227,0.00958738
1691753489342063,0.11492168,0.31124622,10.12268448,-0.14913702,-0.11717909,-0.00745685
1691753489344035,0.08619126,0.23942018,10.05085850,-0.08309063,-0.09267800,-0.00745685
1691753489346149,-0.00478840,0.27772740,9.99339771,-0.01597897,-0.08096009,0.02024002
1691753489348066,0.02394202,0.56503159,9.82580376,0.04048005,-0.06711166,0.00745685
1691753489350106,-0.05746084,0.27772740,9.86889935,0.07882957,-0.04048005,-0.01171791
1691753489352117,-0.11971009,0.36391866,9.77791977,0.12996227,-0.00745685,0.01917476
1691753489354107,0.00957681,0.27293900,9.83059216,0.16085494,0.00106526,0.02663161
1691753489356070,-0.16280572,-0.08140286,9.78749657,0.13635385,0.02663161,0.01384844
1691753489358080,-0.02394202,0.24899697,9.70130539,0.08202536,0.02024002,0.03515373
1691753489360074,-0.06703765,-0.07661445,9.97903252,0.00213053,0.01810949,0.00958738
1691753489362114,-0.00478840,-0.23942018,9.84974575,-0.06498113,-0.01065264,0.05219796
1691753489364120,0.16280572,-0.16759412,10.02691650,-0.14594123,-0.01810949,0.02663161
1691753489366059,0.00478840,-0.41659111,9.99339771,-0.22157501,-0.07350325,0.03195793
1691753489368039,0.34476504,-0.29688102,10.02212811,-0.26205504,-0.09480853,0.00426106
1691753489370092,-0.10055647,-0.39743748,10.17056847,-0.28336033,-0.11185277,-0.00958738
1691753489372091,0.24899697,-0.28730419,9.91199493,-0.32064459,-0.12570120,-0.01810949
1691753489374085,0.09097967,-0.20590134,10.08916569,-0.31744879,-0.15020229,-0.00639159
1691753489376047,0.02394202,-0.14365210,10.01255131,-0.27590349,-0.12676647,-0.00426106
1691753489378155,0.47884035,0.06224924,9.85932255,-0.24501082,-0.11185277,-0.01491370
1691753489380148,0.02394202,0.15801731,10.19929886,-0.22583605,-0.08735169,0.00958738
1691753489382069,0.20111294,0.05746084,9.87847614,-0.16405073,-0.06285060,0.01917476
1691753489384063,-0.04788403,0.06224924,10.12268448,-0.15339808,-0.03195793,-0.00639159
1691753489386073,-0.26336220,0.24420857,10.12268448,-0.13741912,-0.01065264,0.02343582
1691753489388060,0.05746084,0.06224924,10.01733971,-0.11717909,0.00852212,0.02450108
1691753489390090,-0.19153613,0.19632454,10.33816338,-0.09374327,0.02556635,0.05113269
1691753489392044,0.08140286,0.27293900,10.08916569,-0.08522116,0.02450108,0.03302320
1691753489394070,0.08619126,0.11013328,10.29027843,-0.09800433,0.04261058,0.06817693
1691753489396144,-0.25378537,0.15322891,10.27112484,-0.10652644,0.01810949,0.05965481
1691753489398025,0.14844051,-0.13886370,10.11310768,-0.11611383,0.01171791,0.05006743
1691753489400093,-0.08140286,-0.04788403,10.40998936,-0.12676647,-0.03408846,0.03302320
1691753489402103,0.15322891,0.00000000,10.22802925,-0.16618125,-0.06178534,0.02982740
1691753489404199,0.24899697,-0.24420857,10.33816338,-0.18109496,-0.09587380,0.01384844
1691753489406079,-0.05746084,0.11492168,10.38604736,-0.19920444,-0.10333065,0.00958738
1691753489408053,0.35913026,-0.12928689,10.22324085,-0.20026971,-0.12144014,0.01597897
1691753489410075,0.02873042,-0.08619126,10.41477776,-0.19600865,-0.15126754,0.02024002
1691753489412114,0.13886370,0.11492168,10.27591324,-0.19494340,-0.14594123,0.02343582
1691753489414052,0.25378537,-0.16280572,10.30943298,-0.18216021,-0.13635385,0.02450108
1691753489416044,0.02873042,0.31603462,10.40520096,-0.15765914,-0.11185277,0.03302320
1691753489418034,0.20590134,0.03830723,10.31900978,-0.14487596,-0.09054748,0.03515373
1691753489420080,-0.13407530,0.02394202,10.50575733,-0.12570120,-0.03621899,0.02130529
1691753489422085,-0.09097967,0.33518824,10.32858658,-0.07456851,0.00000000,0.02343582
1691753489424037,-0.02873042,-0.05267244,10.38125896,-0.05113269,0.03728426,0.01171791
1691753489426066,-0.23942018,0.57460839,10.30943298,-0.03302320,0.05219796,0.02024002
1691753489428065,-0.01436521,0.21068975,10.08437729,0.00958738,0.06604639,-0.00213053
1691753489430050,-0.13407530,0.17717093,10.29985619,0.04900216,0.06498113,0.02982740
1691753489432053,-0.13407530,0.45489833,10.04607010,0.04793690,0.04048005,0.02982740
1691753489434029,0.06224924,-0.10534488,10.13226128,0.04900216,0.01917476,0.05432849
1691753489436039,-0.25378537,0.32561144,10.15620327,0.04474111,0.00213053,0.02982740
1691753489438030,0.17717093,0.11492168,9.94551373,0.01597897,-0.01384844,0.02343582
1691753489440097,0.15801731,-0.01436521,10.15141487,0.01278317,-0.04687164,0.02024002
1691753489442033,0.11492168,0.31603462,10.05564690,0.00852212,-0.06498113,0.01704423
1691753489444048,0.23463176,-0.20111294,10.02691650,-0.00532632,-0.07350325,0.00213053
1691753489446117,-0.05746084,0.10534488,10.13226128,-0.02024002,-0.08735169,0.00213053
1691753489448076,0.17717093,-0.05267244,9.98382092,-0.02343582,-0.10226539,0.01704423
1691753489450079,0.09097967,-0.13886370,10.08916569,-0.01810949,-0.09267800,0.00319579
1691753489452086,0.07182605,0.47884035,9.93114853,0.01597897,-0.06178534,0.00745685
1691753489454162,-0.03351882,-0.13886370,9.90720654,0.05965481,-0.02450108,0.02130529
1691753489456054,-0.03830723,0.24899697,9.90241814,0.06391586,0.00319579,0.01384844
1691753489458025,-0.01436521,0.30166942,9.72045898,0.09374327,0.01810949,0.01278317
1691753489460041,-0.16280572,0.03351882,9.84495735,0.12676647,0.04900216,-0.01704423
1691753489462125,-0.22984336,0.47405192,9.74440098,0.17257284,0.07882957,0.01065264
1691753489464070,-0.08140286,0.05267244,9.72524738,0.19174761,0.10120012,0.00319579
1691753489466124,-0.11492168,0.25857377,9.86411095,0.20026971,0.12144014,0.00532632
1691753489468057,-0.00478840,0.27772740,9.77313137,0.18429075,0.12357067,0.00639159
1691753489470112,-0.01436521,-0.07661445,9.86411095,0.18642128,0.12783173,0.00639159
1691753489472087,-0.04309563,0.28251579,9.78270817,0.15126754,0.08628642,0.00426106
1691753489474110,0.09576806,-0.07182605,9.80186176,0.10652644,0.07669904,0.01065264
1691753489476070,-0.03351882,-0.25378537,9.83538055,0.06711166,0.03408846,0.00319579
1691753489478042,0.21068975,-0.06224924,9.82101536,0.04687164,0.02450108,0.00213053
1691753489480095,0.11013328,-0.28730419,9.76834297,0.02024002,-0.00426106,0.00639159
1691753489482099,0.14365210,0.01436521,9.74440098,-0.02450108,-0.01704423,-0.01171791
1691753489484045,0.32082301,0.19632454,9.69651699,0.00106526,0.00852212,-0.01065264
1691753489486193,0.08619126,0.02394202,9.52892303,0.06178534,0.05645901,-0.00426106
1691753489488093,0.19153613,0.39743748,9.39005947,0.18109496,0.08628642,0.01491370
1691753489490063,-0.01436521,0.02394202,9.43794346,0.23116238,0.10759171,0.00000000
1691753489492089,-0.22505496,0.01915361,9.39963627,0.27696875,0.13528858,-0.01171791
1691753489494056,-0.04788403,0.21068975,9.35175228,0.24074976,0.11930962,-0.01065264
1691753489496150,-0.31603462,-0.02394202,9.38048267,0.18002969,0.11078750,-0.00532632
1691753489498081,-0.08140286,0.08619126,9.32302189,0.12783173,0.11504856,-0.00106526
1691753489500049,0.11492168,-0.06703765,9.60074902,0.10226539,0.11398330,-0.02450108
1691753489502205,-0.06224924,-0.13886370,9.50498104,0.05965481,0.08415589,-0.02450108
1691753489504106,0.27772740,0.04788403,9.56244183,0.02556635,0.07137272,-0.05006743
1691753489506085,0.00957681,-0.18674773,9.69172859,0.01704423,0.03302320,-0.04687164
1691753489508053,0.21068975,0.01436521,9.45230865,0.00000000,-0.00958738,-0.05752428
1691753489510036,0.26815060,0.06224924,9.73003578,-0.00852212,-0.04367584,-0.03302320
1691753489512122,-0.09576806,-0.10534488,9.56244183,0.00639159,-0.05752428,-0.01917476
1691753489514143,0.37349546,0.19153613,9.47146225,0.04580637,-0.07350325,0.00000000
1691753489516057,0.08619126,0.04788403,9.74440098,0.05858954,-0.09161274,0.01491370
1691753489518023,0.17717093,0.05267244,9.43794346,0.04900216,-0.08628642,0.00106526
1691753489520110,0.32082301,0.02394202,9.71567059,0.07030746,-0.07989483,-0.00852212
1691753489522142,-0.15322891,-0.06703765,9.64384460,0.10546118,-0.06817693,-0.01278317
1691753489524065,0.11971009,0.26815060,9.39963627,0.10865697,-0.05432849,0.00319579
1691753489526093,-0.19153613,0.09097967,9.77791977,0.12144014,-0.00532632,0.01278317
1691753489528037,-0.24420857,0.12928689,9.39484787,0.14061491,0.03302320,0.00426106
1691753489530136,0.07182605,0.32082301,9.44273186,0.14594123,0.07030746,-0.00106526
1691753489532083,-0.37349546,0.00478840,9.72045898,0.12037488,0.10652644,0.00745685
1691753489534060,-0.12449849,0.16759412,9.44752026,0.13528858,0.14487596,0.02130529
1691753489536167,-0.17238252,-0.00478840,9.73961258,0.13422331,0.16192019,0.00319579
1691753489538065,-0.23463176,0.05746084,9.61032581,0.12996227,0.13102752,0.01810949
1691753489540089,0.10055647,0.20111294,9.61990261,0.10333065,0.11291803,0.00426106
1691753489542075,-0.08619126,-0.19153613,9.83538055,0.09693906,0.08522116,0.00426106
1691753489544051,0.14365210,-0.00957681,9.61032581,0.07456851,0.05645901,-0.00426106
1691753489546195,0.11013328,-0.14365210,9.89284134,0.03195793,0.02769688,0.00106526
1691753489548064,-0.06703765,-0.23463176,9.83059216,-0.01065264,-0.01491370,0.00000000
1691753489550042,0.24420857,-0.13886370,9.95509052,-0.03728426,-0.02876214,-0.00106526
1691753489552131,0.09097967,-0.21547815,10.03649330,-0.06711166,-0.05006743,0.00958738
1691753489554134,0.19153613,0.12928689,9.95509052,-0.07137272,-0.05965481,0.02130529
1691753489556087,0.13407530,0.03830723,10.14662647,-0.05006743,-0.06924219,0.03195793
1691753489557982,0.09576806,0.01915361,10.11310768,-0.05113269,-0.04474111,0.02130529
1691753489560048,0.20590134,0.01915361,10.23281765,-0.06498113,-0.01384844,0.02343582
1691753489562138,0.00478840,-0.18674773,10.36689377,-0.06391586,-0.01917476,0.01171791
1691753489564102,0.04309563,0.17238252,10.30943298,-0.04261058,-0.00319579,-0.00745685
1691753489566108,-0.01436521,0.14365210,10.39083576,-0.03621899,-0.00213053,-0.01917476
1691753489568021,-0.00478840,0.13407530,10.32858658,-0.03728426,-0.01384844,0.01704423
1691753489570114,0.19153613,0.10055647,10.36689377,-0.05113269,-0.04154531,0.00426106
1691753489572094,-0.05746084,-0.16759412,10.36689377,-0.04261058,-0.05113269,0.02237055
1691753489574049,0.09097967,0.15322891,10.29027843,-0.05539375,-0.07882957,0.00213053
1691753489576087,0.08619126,0.04309563,10.40998936,-0.06924219,-0.08522116,0.00106526
1691753489578062,0.12449849,0.02873042,10.29985619,-0.10013486,-0.09480853,-0.01704423
1691753489580067,0.29209262,0.05746084,10.35731697,-0.09906960,-0.11824435,-0.01491370
1691753489582088,0.05267244,-0.03351882,10.31422138,-0.11930962,-0.11078750,-0.01278317
1691753489584048,0.14365210,0.03351882,10.31422138,-0.12570120,-0.11611383,0.00000000
1691753489586063,0.02394202,-0.16759412,10.33816338,-0.13848437,-0.11824435,0.00639159
1691753489588154,0.11013328,0.09097967,10.22802925,-0.10759171,-0.11398330,0.01704423
1691753489590063,0.18674773,0.16280572,10.28549004,-0.07030746,-0.10013486,0.03621899
1691753489592047,-0.01915361,0.21068975,10.17535686,-0.03834952,-0.05645901,0.02769688
1691753489594046,0.12449849,0.26336220,10.04128170,-0.01384844,-0.03728426,0.02450108
1691753489596146,-0.14844051,0.14365210,10.09874249,0.01917476,-0.02237055,0.01917476
1691753489598054,-0.13407530,0.21068975,9.94551373,0.03089267,-0.02343582,0.00745685
1691753489600083,0.14365210,0.11971009,10.09874249,0.02130529,-0.01704423,-0.01171791
1691753489602129,-0.11971009,0.02394202,9.99339771,-0.00319579,-0.02982740,-0.01065264
1691753489604130,0.19632454,0.08140286,9.82101536,-0.04154531,-0.05113269,-0.00639159
1691753489606103,0.00000000,-0.03351882,10.09395409,-0.05432849,-0.06604639,-0.01065264
1691753489608057,0.00478840,0.03830723,9.82580376,-0.06604639,-0.08841695,0.00000000
1691753489610074,0.22505496,0.06703765,9.84016895,-0.06604639,-0.10013486,0.00106526
1691753489612114,-0.18195933,0.05267244,9.77313137,-0.05219796,-0.10759171,-0.00106526
1691753489614102,0.30166942,0.13407530,9.36132908,-0.02024002,-0.10759171,0.00106526
1691753489616104,0.06703765,0.05267244,9.73482418,-0.03089267,-0.12783173,-0.01278317
1691753489618037,0.10055647,0.18674773,9.50976944,-0.01384844,-0.12250541,-0.02343582
1691753489620111,0.33997664,0.12928689,9.53849983,0.00852212,-0.12996227,-0.02876214
1691753489622207,-0.17717093,0.14844051,9.80186176,0.02130529,-0.13315806,-0.02663161
1691753489624085,0.15801731,0.17238252,9.39963627,0.01171791,-0.14274544,-0.03728426
1691753489626053,-0.10055647,-0.06224924,9.87368774,-0.00532632,-0.12357067,-0.03515373
1691753489628070,-0.07661445,0.03830723,9.75397778,-0.01917476,-0.13102752,-0.04154531
1691753489630070,0.29209262,-0.04309563,9.68694019,-0.05219796,-0.10759171,-0.02876214
1691753489632110,-0.14365210,-0.02394202,10.06043530,-0.05326322,-0.10226539,-0.01171791
1691753489634037,0.12449849,0.13886370,9.73482418,-0.06498113,-0.07989483,-0.01278317
1691753489636080,-0.00478840,-0.03351882,10.03170490,-0.09374327,-0.06924219,-0.01171791
1691753489638034,-0.08140286,0.15322891,10.03170490,-0.10120012,-0.08309063,-0.01171791
1691753489640088,0.16759412,-0.06703765,9.90241814,-0.11185277,-0.09587380,-0.00426106
1691753489642071,-0.08140286,-0.12928689,10.13704967,-0.12996227,-0.10226539,-0.01917476
1691753489644140,0.04309563,0.07182605,10.01255131,-0.14274544,-0.10013486,-0.02663161
1691753489646083,0.03830723,-0.22026655,10.20408726,-0.12996227,-0.11824435,-0.01171791
1691753489648060,0.00957681,0.14844051,10.22324085,-0.14807175,-0.12996227,-0.00426106
1691753489650057,0.11013328,-0.01915361,10.18014526,-0.11717909,-0.12463594,0.01065264
1691753489652107,0.03351882,-0.02873042,10.26633644,-0.10120012,-0.11504856,0.00958738
1691753489654126,0.05267244,-0.05267244,10.25197124,-0.11930962,-0.07989483,0.01704423
1691753489656055,-0.04788403,-0.22026655,10.29985619,-0.11930962,-0.06711166,0.00319579
1691753489658082,-0.04788403,0.18195933,10.29506683,-0.10333065,-0.06285060,0.01065264
1691753489660049,-0.04309563,0.00000000,10.30943298,-0.10759171,-0.01810949,0.01278317
1691753489662204,-0.09576806,-0.00957681,10.44829655,-0.11078750,0.02130529,0.00852212
1691753489664113,0.00478840,0.32561144,10.40998936,-0.06817693,0.04900216,0.00639159
1691753489666204,-0.17717093,-0.07182605,10.47702694,-0.05326322,0.07563377,0.01171791
1691753489668049,-0.04788403,0.32082301,10.45787334,-0.06817693,0.08202536,0.00426106
1691753489670085,-0.15322891,-0.09097967,10.46266174,-0.07776430,0.07456851,-0.00106526
1691753489672118,-0.11971009,-0.13407530,10.46745014,-0.08628642,0.05219796,0.00958738
1691753489674041,0.04309563,0.30166942,10.40998936,-0.08948221,0.01384844,-0.00426106
1691753489676082,0.03830723,-0.05746084,10.35252857,-0.08309063,-0.03302320,0.00958738
1691753489678057,0.14365210,0.23942018,10.40520096,-0.09800433,-0.04154531,0.00000000
1691753489680069,0.03830723,-0.11971009,10.31422138,-0.10120012,-0.06178534,-0.00106526
1691753489682116,0.09097967,-0.05746084,10.22802925,-0.10652644,-0.07456851,0.00106526
1691753489684061,0.20590134,0.23942018,10.28549004,-0.09054748,-0.05752428,0.01704423
1691753489686080,0.06224924,-0.14844051,10.11310768,-0.08309063,-0.03728426,0.00639159
1691753489688074,0.16759412,0.41180268,10.06522369,-0.03515373,-0.01597897,0.01597897
1691753489690097,0.01915361,0.19632454,9.97903252,0.01278317,0.01384844,0.02450108
1691753489691997,-0.09097967,0.15801731,9.91199493,0.03089267,0.03834952,0.01491370
1691753489694064,-0.01436521,0.34955344,9.96466732,0.04687164,0.04900216,0.01065264
1691753489696117,-0.22026655,0.00478840,9.87368774,0.05752428,0.05219796,0.02024002
1691753489698070,-0.06224924,0.38786069,9.84016895,0.07456851,0.05432849,0.03621899
1691753489700064,0.00957681,0.15322891,9.90241814,0.07456851,0.04580637,0.04154531
1691753489702135,-0.00478840,0.04788403,9.88805294,0.04580637,0.03728426,0.05219796
1691753489704113,0.23463176,0.12928689,9.94072533,0.01917476,0.01810949,0.03302320
1691753489706110,-0.04309563,-0.14365210,9.94072533,0.01597897,-0.00106526,0.03302320
1691753489708039,0.04788403,0.05746084,9.95509052,-0.00639159,-0.01384844,0.02024002
1691753489710149,0.19153613,-0.11971009,10.14183807,-0.05432849,-0.02343582,0.01171791
1691753489712098,0.07661445,-0.08140286,9.95030212,-0.09161274,-0.03621899,0.01065264
1691753489714156,0.31603462,0.11013328,10.07001209,-0.09374327,-0.04048005,0.01810949
1691753489716073,0.10055647,-0.10055647,10.17056847,-0.10333065,-0.04474111,0.00852212
1691753489718058,0.12449849,0.10055647,9.97424412,-0.10333065,-0.04261058,0.02450108
1691753489720117,0.24420857,-0.08140286,10.25197124,-0.10120012,-0.04367584,0.03089267
1691753489722079,-0.24899697,-0.10534488,10.09874249,-0.08841695,-0.03941479,0.02343582
1691753489724108,0.20590134,0.19153613,10.05564690,-0.07243798,-0.03834952,0.00852212
1691753489726082,-0.03351882,0.00478840,10.32858658,-0.06498113,-0.02663161,-0.00426106
1691753489728065,0.04788403,0.20590134,10.01733971,-0.06285060,-0.01278317,-0.00106526
1691753489730102,-0.06703765,0.25857377,9.95509052,-0.06285060,-0.00745685,0.00213053
1691753489732108,0.09576806,0.57460839,9.57680702,-0.05326322,0.00532632,-0.00852212
1691753489734064,0.40701428,0.47884035,9.83538055,-0.03408846,0.01384844,-0.00213053
1691753489736074,-0.21547815,0.31124622,9.91678333,-0.02663161,0.02237055,0.00319579
1691753489738078,0.22505496,0.44053310,9.64384460,-0.04474111,0.00958738,0.01065264
1691753489740113,-0.12449849,0.08140286,10.11789608,-0.05858954,0.01384844,0.01171791
1691753489742177,0.01915361,0.36870706,9.85932255,-0.05219796,0.01704423,0.02130529
1691753489744055,0.35913026,0.32561144,9.96466732,-0.02876214,0.02450108,0.01597897
1691753489746122,-0.22026655,0.23463176,10.12268448,0.00213053,0.04261058,0.01810949
1691753489748069,0.17238252,0.45489833,9.67736340,0.02343582,0.06498113,0.01278317
1691753489750180,-0.12449849,0.00478840,10.05085850,0.05113269,0.07350325,0.00745685
1691753489752112,-0.17238252,0.31124622,9.83538055,0.06604639,0.08415589,0.01917476
1691753489754153,0.25857377,0.16759412,9.79707336,0.07137272,0.07350325,0.02450108
1691753489756092,-0.22984336,0.05267244,10.09395409,0.08735169,0.07882957,0.00639159
1691753489758065,0.13886370,0.38307226,9.77791977,0.08628642,0.06498113,0.00852212
1691753489760088,0.05267244,-0.11971009,10.10831928,0.04793690,0.08735169,0.00106526
1691753489762106,-0.09097967,0.14365210,9.94072533,0.01704423,0.07669904,0.02876214
1691753489764183,0.33039984,0.02394202,9.87847614,0.00745685,0.05645901,0.02237055
1691753489766077,-0.04309563,-0.26336220,10.01733971,-0.01704423,0.02130529,0.00852212
1691753489768058,0.20111294,0.19153613,9.70130539,-0.03302320,-0.01384844,-0.01278317
1691753489770104,0.20590134,-0.17717093,9.88805294,-0.03621899,-0.04048005,-0.02769688
1691753489772204,0.03830723,0.09097967,9.72524738,-0.03195793,-0.08309063,-0.01810949
1691753489774106,0.33997664,0.13886370,9.73482418,-0.04900216,-0.09906960,-0.02237055
1691753489776081,0.12928689,-0.17238252,9.79707336,-0.03834952,-0.10759171,0.00319579
1691753489778068,0.12449849,0.28730419,9.61032581,-0.02876214,-0.08841695,-0.00639159
1691753489780164,0.13407530,-0.11013328,9.83538055,-0.03728426,-0.06604639,0.01491370
1691753489782174,-0.08619126,-0.00478840,9.80186176,-0.06072007,-0.02556635,-0.00426106
1691753489784057,0.02394202,0.18195933,9.87847614,-0.05006743,-0.00639159,0.00319579
1691753489786167,-0.14365210,-0.18674773,10.02212811,-0.04154531,0.03621899,-0.02237055
1691753489788064,-0.04788403,0.25857377,9.92157173,-0.02130529,0.05965481,-0.02130529
1691753489790168,-0.03351882,0.00957681,10.06043530,-0.00639159,0.08948221,-0.02663161
1691753489792073,-0.18674773,0.08140286,9.92157173,0.00106526,0.10226539,-0.01278317
1691753489794088,0.00478840,0.52672440,9.86889935,0.01171791,0.10972223,-0.03089267
1691753489796108,-0.21068975,-0.07182605,9.87847614,0.03195793,0.09587380,-0.02982740
1691753489798049,0.00000000,0.37828386,9.67257500,0.05432849,0.09267800,-0.02024002
1691753489800078,0.04788403,0.19632454,9.74918938,0.08522116,0.07563377,-0.02982740
1691753489802130,-0.10534488,-0.04309563,9.65342140,0.14594123,0.05326322,-0.02556635
1691753489804237,0.11492168,0.62249243,9.72045898,0.15020229,0.05006743,-0.01171791
1691753489806078,-0.08140286,-0.00957681,9.77313137,0.14487596,0.05965481,-0.01597897
1691753489808031,0.08619126,0.16280572,9.60553741,0.14807175,0.07989483,-0.02343582
1691753489810093,0.06703765,0.21068975,9.84016895,0.16192019,0.09800433,-0.01917476
1691753489812144,-0.15801731,-0.20111294,9.83059216,0.15233281,0.11611383,-0.01597897
1691753489814120,0.02394202,0.34955344,9.90720654,0.13635385,0.13422331,0.00000000
1691753489816079,-0.30166942,-0.11492168,9.97903252,0.11185277,0.16618125,0.01704423
1691753489818075,-0.00478840,0.04788403,9.74918938,0.07350325,0.15339808,0.00958738
1691753489820131,0.12449849,0.18674773,10.04128170,0.07882957,0.14700650,0.00852212
1691753489822287,-0.12449849,-0.27293900,9.83059216,0.07669904,0.14061491,0.00532632
1691753489824086,0.28251579,0.27293900,9.86889935,0.06604639,0.11824435,-0.02130529
1691753489826143,-0.12928689,-0.00478840,10.05564690,0.06498113,0.09693906,-0.02769688
1691753489828079,0.06224924,-0.08619126,9.73003578,0.07243798,0.07456851,-0.00639159
1691753489830087,0.17238252,0.13407530,10.14662647,0.04048005,0.07137272,-0.01597897
1691753489832080,-0.04309563,-0.20111294,9.97903252,0.01278317,0.04261058,-0.00319579
1691753489834074,0.43574470,0.07661445,9.88326454,0.01597897,0.02876214,0.00319579
1691753489836056,0.01436521,-0.08140286,10.19451046,0.01171791,-0.00958738,0.01278317
1691753489838042,0.28730419,-0.08140286,9.74440098,-0.01810949,-0.04261058,-0.01597897
1691753489840114,0.23463176,-0.03830723,10.04607010,-0.04261058,-0.10120012,0.00958738
1691753489842076,-0.00478840,-0.12449849,9.94551373,-0.05965481,-0.12889700,0.00213053
1691753489844107,0.45968673,0.03830723,9.78749657,-0.07776430,-0.13954964,0.00213053
1691753489846185,0.07182605,0.01436521,10.11310768,-0.07243798,-0.15126754,0.00852212
1691753489848047,0.25378537,0.09576806,9.75876617,-0.07030746,-0.13209279,0.02237055
1691753489850083,0.27772740,0.09576806,9.82101536,-0.04474111,-0.13741912,0.02343582
1691753489852134,-0.04309563,0.22984336,9.77791977,-0.01704423,-0.13422331,0.02130529
1691753489854120,0.24899697,0.09097967,9.58638382,-0.00106526,-0.15020229,0.00745685
1691753489856080,-0.04788403,0.07661445,9.85453415,0.00106526,-0.14274544,0.01491370
1691753489858049,0.00957681,0.22984336,9.53849983,0.00532632,-0.14381070,-0.00852212
1691753489860084,0.15801731,0.01915361,9.67257500,0.02130529,-0.14487596,-0.00745685
1691753489862186,-0.17717093,0.20111294,9.74440098,0.00639159,-0.12783173,-0.01810949
1691753489864115,0.15322891,0.01436521,9.55286503,-0.01597897,-0.11717909,-0.01065264
1691753489866195,-0.04309563,0.00478840,9.84974575,-0.02769688,-0.07563377,-0.00426106
1691753489868034,-0.15322891,0.21547815,9.68215179,-0.00532632,-0.03834952,0.01917476
1691753489870269,-0.00957681,0.01915361,9.72524738,-0.00106526,-0.00106526,0.02663161
1691753489872104,-0.34955344,0.15801731,9.89284134,0.00852212,0.06178534,0.03408846
1691753489874055,-0.26336220,-0.07182605,9.66778660,0.02769688,0.08628642,0.03195793
1691753489876077,-0.24899697,0.01436521,9.94072533,0.03089267,0.11930962,0.02982740
1691753489878042,-0.34955344,0.21547815,9.85453415,0.02556635,0.13528858,0.01597897
1691753489880066,-0.01436521,0.00478840,9.87368774,0.02237055,0.13528858,0.01704423
1691753489882054,-0.13886370,0.06703765,10.07001209,0.01384844,0.11611383,-0.00319579
1691753489884058,-0.00478840,-0.01436521,9.81143856,-0.01917476,0.11824435,-0.00106526
1691753489886071,0.03351882,-0.03830723,10.06043530,-0.02237055,0.07989483,-0.01065264
1691753489888086,-0.09097967,0.09097967,10.00776291,-0.02450108,0.04793690,-0.00532632
1691753489890076,0.18674773,0.01915361,9.97903252,-0.04687164,0.04154531,-0.01917476
1691753489892055,0.04788403,0.11971009,10.07001209,-0.04367584,0.00639159,0.00106526
1691753489894103,0.18195933,0.20590134,9.90720654,-0.05006743,-0.00532632,0.00958738
1691753489896099,0.11492168,-0.05746084,10.09874249,-0.04154531,0.00852212,0.00745685
1691753489898058,0.06224924,0.16759412,10.07001209,-0.01171791,0.00426106,0.00213053
1691753489900076,0.22026655,0.07661445,10.05085850,-0.00106526,0.01065264,0.02130529
1691753489902113,-0.06224924,0.05746084,10.11310768,-0.00745685,0.04048005,0.02024002
1691753489904088,0.06224924,0.22505496,9.93593693,0.02237055,0.05219796,0.00532632
1691753489906089,0.04309563,0.12449849,10.11789608,0.03728426,0.09480853,0.00532632
1691753489908035,-0.16280572,0.10534488,10.11310768,0.03195793,0.12250541,0.00319579
1691753489909999,-0.06224924,0.17238252,9.91199493,0.07030746,0.12783173,-0.01597897
1691753489912115,-0.18195933,0.16280572,10.02691650,0.11504856,0.12996227,-0.02130529
1691753489914141,-0.06224924,0.22505496,9.84495735,0.12250541,0.13954964,-0.02024002
1691753489916096,0.00478840,0.06703765,9.90241814,0.11291803,0.14594123,-0.02769688
1691753489918155,-0.13886370,0.11013328,9.90241814,0.11930962,0.13209279,-0.02876214
1691753489920193,0.04309563,0.31603462,9.76355457,0.12676647,0.13315806,-0.02343582
1691753489922082,-0.09097967,0.16759412,9.84495735,0.13315806,0.13954964,-0.01597897
1691753489924062,-0.09576806,0.00000000,9.71567059,0.12250541,0.13102752,-0.02556635
1691753489926081,0.10055647,0.15322891,9.69651699,0.12037488,0.11611383,-0.02024002
1691753489928097,-0.11971009,0.04788403,9.81622696,0.12357067,0.11611383,-0.03089267
1691753489930077,0.11971009,0.09576806,9.70609379,0.07776430,0.12037488,-0.01171791
1691753489932192,0.13886370,-0.02873042,9.85453415,0.03834952,0.10759171,-0.01171791
1691753489934098,0.06703765,0.03351882,9.68215179,0.02237055,0.10546118,-0.01597897
1691753489936052,0.22984336,0.01436521,9.73003578,0.03302320,0.10652644,-0.02024002
1691753489938084,-0.07661445,0.05746084,9.81143856,0.02876214,0.09374327,-0.01491370
1691753489940099,0.08619126,-0.00957681,9.68694019,0.01597897,0.08096009,-0.01810949
1691753489942067,-0.08619126,-0.10534488,9.99339771,0.00745685,0.05326322,-0.02343582
1691753489944078,-0.09576806,0.00000000,9.86889935,0.00852212,0.04687164,-0.02237055
1691753489946168,0.37828386,0.11971009,9.75876617,0.00745685,0.03941479,-0.02024002
1691753489948069,-0.02394202,-0.03351882,10.07958889,0.01171791,0.02343582,0.00000000
1691753489950078,0.19153613,0.01915361,9.80665016,0.02130529,0.02663161,0.00213053
1691753489952110,0.08619126,0.03830723,9.98382092,0.01065264,0.03515373,0.00639159
1691753489954133,-0.14365210,0.10055647,9.95030212,0.00532632,0.05219796,0.00426106
1691753489956124,0.22505496,0.11492168,9.79707336,0.01917476,0.06072007,0.00426106
1691753489958052,-0.12449849,-0.02394202,10.16099167,0.01704423,0.07563377,-0.00532632
1691753489960087,0.11492168,0.10055647,9.84495735,0.00852212,0.06072007,-0.00106526
1691753489962105,0.07661445,-0.00957681,10.01733971,0.01278317,0.06924219,0.00000000
1691753489964141,-0.21547815,0.11492168,10.05564690,0.02556635,0.06924219,0.00000000
1691753489966057,0.21068975,0.20111294,9.77791977,0.03941479,0.06711166,-0.01384844
1691753489968068,-0.05746084,0.12449849,10.08437729,0.05965481,0.06604639,-0.00213053
1691753489970135,0.10534488,0.19632454,9.83059216,0.07350325,0.07776430,-0.01171791
1691753489972203,0.21068975,0.03830723,9.93114853,0.08415589,0.07350325,-0.00745685
1691753489974096,-0.08619126,0.22505496,10.01733971,0.09800433,0.07882957,-0.00958738
1691753489976101,0.15322891,0.13407530,9.72524738,0.09374327,0.08202536,0.00426106
1691753489978088,-0.01915361,0.05746084,10.05085850,0.08948221,0.07137272,0.00319579
1691753489980107,0.07661445,0.16280572,9.85932255,0.09161274,0.05539375,0.02769688
1691753489982132,0.23463176,-0.13886370,9.94551373,0.06391586,0.04687164,0.02982740
1691753489984085,-0.09097967,0.11492168,10.12268448,0.03195793,0.01278317,0.02343582
1691753489986083,0.27293900,0.04309563,9.93114853,0.00532632,0.00745685,0.00639159
1691753489988099,0.08619126,-0.06224924,10.08437729,0.00213053,-0.02556635,-0.00958738
1691753489990094,0.11013328,0.28730419,10.00297451,-0.00745685,-0.02450108,-0.01278317
1691753489992086,0.25857377,-0.06224924,9.94551373,-0.00213053,-0.02343582,0.00958738
1691753489994122,0.02394202,0.17238252,9.97903252,0.00106526,-0.00532632,0.00745685
1691753489996153,0.22984336,0.08619126,9.88805294,0.01065264,-0.00958738,0.01171791
1691753489998116,0.05267244,-0.12449849,10.09395409,0.00532632,0.00106526,-0.00639159
1691753490000069,0.02394202,0.31603462,10.05564690,0.01810949,0.00319579,0.01171791
1691753490002124,0.12449849,-0.12449849,10.03649330,0.02237055,0.00639159,0.00000000
1691753490004141,-0.11013328,0.19153613,10.03649330,0.02982740,0.00532632,-0.00213053
1691753490006092,0.07661445,0.21068975,9.97424412,0.03302320,0.01384844,-0.01704423
1691753490008075,-0.06703765,-0.25378537,10.09874249,0.02343582,0.03515373,-0.01491370
1691753490010118,-0.01436521,0.27293900,10.02691650,0.01917476,0.03834952,-0.01278317
1691753490012222,0.06224924,-0.15801731,10.07480049,0.02769688,0.04687164,-0.02237055
1691753490014088,-0.03351882,0.13407530,10.05085850,0.02237055,0.06711166,-0.02130529
1691753490016097,0.19632454,0.29209262,10.00776291,0.00532632,0.07243798,-0.00958738
1691753490018056,-0.05746084,-0.31124622,10.08437729,-0.00852212,0.05645901,0.00532632
1691753490020097,0.00478840,0.29688102,9.99339771,-0.02237055,0.03834952,0.00213053
1691753490022086,0.07661445,-0.18674773,10.02212811,-0.01278317,0.02024002,-0.00213053
1691753490024131,-0.04309563,0.06703765,9.94072533,-0.00106526,0.00745685,0.00532632
1691753490026062,0.28730419,0.35913026,9.94072533,0.00958738,0.00426106,-0.00319579
1691753490028068,0.12449849,-0.21068975,9.90720654,0.01491370,0.00000000,0.00213053
1691753490030090,0.23942018,0.41180268,9.83059216,0.02024002,0.00958738,-0.01597897
1691753490032124,0.15801731,0.02873042,9.91678333,0.03408846,0.02130529,-0.01278317
1691753490034012,-0.07182605,0.03830723,9.78749657,0.02450108,0.02769688,-0.02130529
1691753490036085,0.16759412,0.06224924,9.95987892,0.01597897,0.02982740,0.01384844
1691753490038166,-0.09097967,-0.27293900,9.91199493,0.01171791,0.02876214,0.01704423
1691753490040089,0.14844051,0.36391866,9.97903252,0.01065264,0.01597897,0.03089267
1691753490042084,0.18195933,0.06703765,10.11310768,0.00426106,0.00852212,0.02876214
1691753490044077,-0.10534488,0.00000000,9.85932255,-0.00958738,-0.01491370,0.03195793
1691753490046163,0.23463176,0.34476504,10.03170490,-0.02130529,-0.03089267,0.00958738
1691753490048101,-0.07661445,-0.25378537,10.06522369,-0.03621899,-0.04154531,0.01491370
1691753490050063,0.13407530,0.14844051,9.86411095,-0.04367584,-0.04048005,0.02237055
1691753490052139,0.25857377,0.03351882,10.16578007,-0.04154531,-0.03302320,0.02130529
1691753490054120,-0.01436521,-0.10055647,9.86889935,-0.03515373,-0.02450108,0.01171791
1691753490056083,0.33039984,0.31124622,9.92636013,-0.03408846,-0.03728426,0.00639159
1691753490058065,-0.06224924,-0.18195933,10.03649330,-0.04580637,-0.07989483,-0.00745685
1691753490060077,0.07182605,0.08140286,9.65342140,-0.07137272,-0.12357067,0.00426106
1691753490062129,0.14844051,-0.02873042,10.02691650,-0.09693906,-0.16618125,-0.01171791
1691753490064081,-0.00957681,-0.21547815,9.76834297,-0.11185277,-0.17789917,-0.00639159
1691753490066125,0.45010993,0.09097967,9.76355457,-0.10865697,-0.16937704,-0.02343582
1691753490068039,0.09576806,-0.16280572,9.98382092,-0.11291803,-0.14913702,-0.00532632
1691753490070076,0.15801731,0.14365210,9.61032581,-0.08948221,-0.12357067,-0.02024002
1691753490072112,-0.04788403,-0.06703765,9.99818611,-0.05645901,-0.08096009,0.01491370
1691753490074111,-0.24420857,0.02394202,9.78270817,-0.04793690,-0.05113269,0.00000000
1691753490076066,0.12449849,0.26336220,9.81622696,-0.02663161,-0.01810949,0.01384844
1691753490078081,-0.21068975,0.05746084,9.95987892,-0.01384844,0.00958738,0.00213053
1691753490080182,0.00957681,0.35434186,9.51934624,0.02130529,0.02450108,0.01917476
1691753490082057,0.10534488,0.34955344,9.76355457,0.04793690,0.03515373,0.02024002
1691753490084073,-0.27772740,0.04309563,9.86411095,0.07030746,0.04687164,0.03089267
1691753490086088,0.11971009,0.33518824,9.47625065,0.06924219,0.04687164,0.02450108
1691753490088134,-0.07661445,0.18674773,9.94551373,0.06072007,0.05219796,0.00639159
1691753490090078,-0.27293900,0.10055647,9.65342140,0.06391586,0.05006743,0.01810949
1691753490092003,0.12928689,0.31124622,9.67736340,0.05752428,0.05326322,-0.00426106
1691753490094084,-0.22984336,-0.13886370,9.94072533,0.06817693,0.04900216,0.00639159
1691753490096206,0.10055647,0.04788403,9.62947941,0.04687164,0.06072007,-0.02024002
1691753490098052,-0.16759412,-0.23942018,9.98860931,0.01065264,0.03941479,-0.02130529
1691753490100006,-0.04788403,-0.06224924,9.82101536,-0.00532632,0.02769688,-0.02237055
1691753490102157,0.21547815,0.23942018,9.86411095,-0.02556635,0.01597897,-0.01917476
1691753490104142,-0.09097967,-0.10055647,10.08437729,-0.03408846,0.01171791,-0.02343582
1691753490106118,0.07661445,0.09576806,9.80665016,-0.03195793,0.00852212,-0.02343582
1691753490108044,0.07661445,0.01915361,10.02691650,-0.01384844,-0.00745685,-0.00532632
1691753490110082,-0.02394202,-0.10055647,9.94072533,-0.02450108,-0.01704423,-0.00639159
1691753490112118,0.23942018,0.18674773,10.07001209,-0.01491370,-0.01917476,-0.00426106
1691753490114241,0.02873042,-0.00957681,10.16099167,-0.01597897,-0.02024002,-0.00958738
1691753490116112,0.25378537,0.12928689,10.08916569,-0.02450108,-0.02343582,-0.01065264
1691753490118065,0.08140286,0.09576806,10.17056847,-0.02237055,-0.02982740,-0.01171791
1691753490120112,-0.05267244,-0.08619126,10.11789608,-0.00745685,-0.02450108,-0.00426106
1691753490122101,0.18674773,0.11013328,10.16099167,-0.00745685,-0.01917476,-0.01597897
1691753490124118,0.02394202,-0.02873042,10.17056847,-0.00639159,-0.02343582,-0.00319579
1691753490126082,0.10534488,0.21547815,10.02691650,0.00639159,-0.02556635,0.00319579
1691753490128029,0.04788403,0.16280572,10.14662647,0.01810949,-0.02237055,-0.00106526
1691753490130089,-0.04309563,0.09097967,10.00776291,0.02556635,-0.01810949,-0.02024002
1691753490132119,0.12928689,0.16759412,10.00297451,0.02556635,-0.02130529,-0.00639159
1691753490134099,-0.04309563,0.09097967,9.94551373,0.01597897,-0.01597897,-0.00426106
1691753490136123,0.00000000,0.13886370,9.95509052,0.01384844,-0.00852212,-0.01278317
1691753490138093,-0.10534488,-0.12928689,10.05564690,0.00000000,0.00852212,-0.01384844
1691753490140141,-0.04309563,0.06224924,9.95987892,-0.01278317,0.00532632,-0.00532632
1691753490142098,0.17717093,0.22026655,10.07001209,-0.01491370,-0.00106526,-0.01278317
1691753490144090,-0.14365210,-0.07182605,10.07958889,-0.00532632,-0.00106526,-0.01491370
1691753490146184,0.00000000,0.15322891,9.98382092,-0.00745685,-0.00958738,-0.01384844
1691753490148075,-0.07182605,0.08140286,10.13226128,-0.01171791,-0.02343582,-0.01065264
1691753490150068,-0.04788403,0.01436521,9.97903252,-0.00319579,-0.02663161,-0.01065264
1691753490152119,0.26336220,0.25857377,10.05085850,0.00745685,-0.04154531,-0.01065264
1691753490154096,-0.04309563,0.04788403,10.08916569,0.02237055,-0.04900216,-0.01278317
1691753490156106,0.28251579,0.23463176,10.07001209,0.02237055,-0.03408846,-0.02237055
1691753490157999,-0.09097967,0.13407530,10.14183807,0.02450108,-0.03302320,-0.01917476
1691753490160087,-0.11971009,-0.00478840,9.98382092,0.02024002,-0.03408846,-0.01810949
1691753490162126,0.22984336,0.10534488,10.13704967,0.00106526,-0.02982740,-0.00106526
1691753490164138,-0.11013328,-0.12449849,10.22324085,-0.02769688,-0.02663161,0.00213053
1691753490166067,0.19632454,0.05746084,10.06522369,-0.04048005,-0.03621899,0.00745685
1691753490168003,-0.01915361,0.08140286,10.36210537,-0.05539375,-0.03195793,0.00532632
1691753490170109,-0.11013328,0.00000000,10.12268448,-0.06924219,-0.03621899,0.00852212
1691753490172205,0.21547815,0.04788403,10.19929886,-0.07563377,-0.02876214,0.00639159
1691753490174083,-0.11971009,0.06703765,10.10353088,-0.05645901,-0.01917476,-0.00852212
1691753490176101,0.11971009,0.07661445,10.00297451,-0.04580637,-0.01810949,-0.00213053
1691753490178103,-0.23463176,-0.03351882,10.26633644,-0.03515373,-0.02024002,-0.00639159
1691753490180098,-0.10534488,0.11013328,10.01255131,-0.02130529,-0.01597897,0.00532632
1691753490182153,0.23463176,0.15801731,10.04128170,0.00000000,-0.02663161,-0.01171791
1691753490184066,-0.25378537,-0.00957681,10.20887566,0.01384844,-0.01917476,-0.00213053
1691753490186125,0.10055647,0.07182605,9.84016895,0.01065264,-0.02663161,0.00106526
1691753490188073,0.03830723,0.15322891,10.22324085,0.02024002,-0.02450108,0.00745685
1691753490190101,-0.08619126,0.12928689,9.96466732,0.02450108,-0.02769688,0.00426106
1691753490192079,0.34955344,0.26336220,9.95030212,0.01065264,-0.02663161,0.00319579
1691753490194082,-0.20590134,0.07661445,10.19451046,0.00426106,-0.04048005,0.00532632
1691753490196197,0.09097967,0.02394202,9.73003578,0.00532632,-0.03302320,0.01278317
1691753490198100,0.02394202,0.02873042,10.14183807,0.01491370,-0.02130529,0.01065264
1691753490200065,-0.15322891,-0.03351882,9.96466732,0.01065264,-0.01597897,0.00958738
1691753490202118,0.30166942,0.15801731,9.75876617,-0.00213053,-0.01171791,0.00532632
1691753490204156,-0.19153613,0.10055647,10.18014526,-0.01917476,0.00319579,0.00639159
1691753490206142,0.07182605,0.07661445,9.66778660,-0.02556635,0.01810949,-0.00106526
1691753490208045,0.08619126,0.11971009,10.00776291,-0.01810949,0.03408846,-0.00958738
1691753490210104,-0.27293900,0.02394202,9.99818611,-0.00426106,0.03515373,-0.01810949
1691753490212165,0.17717093,0.17717093,9.64863300,0.00745685,0.03089267,-0.02556635
1691753490214104,-0.13407530,0.11971009,10.15620327,0.02450108,0.02450108,-0.00852212
1691753490216220,0.03351882,0.04309563,9.71088219,0.03621899,0.01491370,-0.00106526
1691753490218041,0.22505496,0.11013328,9.89762974,0.02769688,0.00000000,0.01278317
1691753490220122,-0.13886370,0.10534488,10.05564690,-0.00532632,-0.00958738,0.01278317
1691753490222059,0.28251579,0.07661445,9.67257500,-0.02343582,-0.02130529,0.01384844
1691753490224134,-0.11013328,0.07661445,9.98382092,-0.04154531,-0.03941479,0.00958738
1691753490226066,0.02873042,0.09097967,9.77313137,-0.03728426,-0.03515373,0.01171791
1691753490228073,0.21068975,0.08140286,9.81622696,-0.01491370,-0.04367584,0.00852212
1691753490230113,-0.03830723,0.11013328,9.99339771,-0.01597897,-0.05113269,0.00852212
1691753490232105,0.24899697,0.09097967,9.76355457,-0.01704423,-0.04900216,0.00532632
1691753490234092,0.08619126,0.04309563,10.05564690,-0.00532632,-0.03515373,-0.01065264
1691753490236120,0.04309563,0.14844051,9.89284134,0.00106526,-0.03621899,-0.02024002
1691753490238096,0.07661445,-0.00478840,9.95509052,-0.03089267,-0.02556635,-0.02237055
1691753490240130,-0.16759412,0.11492168,10.01255131,-0.04687164,-0.02663161,-0.01171791
1691753490242076,0.06224924,-0.01915361,9.85453415,-0.05006743,-0.01597897,-0.00319579
1691753490244096,-0.01436521,-0.08619126,10.04128170,-0.06711166,-0.00426106,-0.00319579
1691753490246211,0.01436521,0.11492168,9.92636013,-0.08096009,0.00213053,-0.00958738
1691753490248068,-0.01436521,-0.00957681,9.95509052,-0.06391586,0.00745685,-0.00532632
1691753490250087,-0.10055647,0.21547815,9.93114853,-0.04474111,0.01597897,-0.00426106
1691753490252159,0.08140286,0.14844051,9.79707336,-0.05006743,0.00745685,-0.01065264
1691753490254134,0.00000000,0.04788403,9.86411095,-0.02450108,-0.00639159,-0.01171791
1691753490256068,0.06703765,0.17238252,9.82101536,-0.01065264,-0.00745685,-0.00852212
1691753490258068,0.03351882,0.03830723,9.82580376,-0.00106526,-0.02343582,-0.00639159
1691753490260072,-0.01915361,0.30166942,9.84495735,0.00532632,-0.02982740,0.00106526
1691753490262125,0.10534488,0.14844051,9.78749657,0.00639159,-0.02663161,0.00000000
1691753490264100,0.00478840,0.00478840,9.85932255,-0.01810949,-0.03195793,-0.01384844
1691753490266120,0.15801731,0.20590134,9.83059216,-0.02663161,-0.03728426,-0.00213053
1691753490268043,0.04788403,-0.04788403,9.87847614,-0.02982740,-0.03515373,0.01597897
1691753490270079,-0.08140286,0.19153613,9.88326454,-0.03515373,-0.03941479,0.00852212
1691753490272113,0.08619126,-0.02873042,9.93593693,-0.03089267,-0.04048005,-0.00106526
1691753490274059,-0.01915361,0.04309563,9.95509052,-0.03408846,-0.03621899,0.00639159
1691753490276072,0.16280572,0.21547815,9.95030212,-0.02237055,-0.03621899,0.01278317
1691753490278090,0.08619126,-0.03351882,10.00297451,-0.01384844,-0.03195793,0.01597897
1691753490280102,-0.11492168,0.22026655,9.94551373,-0.01917476,-0.02556635,0.01384844
1691753490282121,0.10055647,0.19153613,9.92157173,-0.01384844,-0.02769688,0.00532632
1691753490284084,-0.13407530,0.02394202,9.96945572,0.00745685,-0.01917476,-0.01278317
1691753490286088,0.07661445,0.28251579,9.88805294,0.02663161,-0.01491370,-0.00106526
1691753490288102,0.11013328,-0.01436521,10.01733971,0.02556635,-0.00852212,-0.00958738
1691753490290091,-0.14365210,0.17238252,9.95509052,0.02876214,0.00000000,-0.00106526
1691753490292065,0.12928689,0.15322891,9.94072533,0.00532632,0.01171791,0.00319579
1691753490294088,-0.14844051,0.01915361,10.05085850,-0.01171791,0.01171791,0.01917476
1691753490296283,-0.00957681,0.19153613,9.87847614,-0.01384844,0.00745685,0.00213053
1691753490298072,-0.12449849,0.04788403,10.06043530,0.00426106,-0.01278317,-0.01704423
1691753490300083,-0.21068975,0.11971009,9.99818611,0.00958738,-0.02024002,-0.01810949
1691753490302104,0.21547815,0.13886370,9.89762974,0.00000000,-0.01917476,-0.01278317
1691753490304126,-0.06224924,-0.04309563,10.01733971,-0.01384844,-0.02237055,-0.00745685
1691753490306122,0.04788403,0.24899697,9.71088219,-0.01171791,-0.03089267,-0.00319579
1691753490308049,0.24420857,-0.08140286,9.84016895,-0.02130529,-0.03089267,-0.00426106
1691753490310089,-0.20111294,0.04788403,9.87847614,-0.02130529,-0.01491370,-0.00745685
1691753490312132,0.17717093,0.11492168,9.61990261,-0.01917476,-0.01917476,-0.00532632
1691753490314085,-0.05746084,-0.02873042,9.92636013,-0.02343582,-0.02024002,-0.00106526
1691753490316129,-0.05267244,0.27772740,9.72045898,-0.04048005,-0.02556635,0.00532632
1691753490318065,0.24899697,-0.06224924,9.78270817,-0.02876214,-0.02450108,-0.00106526
1691753490320124,-0.18195933,0.01436521,9.92157173,-0.01384844,-0.02876214,0.00426106
1691753490322080,0.16280572,0.24420857,9.61990261,-0.01491370,-0.03408846,0.00958738
1691753490324140,-0.02873042,-0.07182605,9.91678333,-0.02130529,-0.02237055,0.01704423
1691753490326072,-0.13886370,0.25857377,9.70609379,-0.00639159,-0.01278317,0.02130529
1691753490328085,0.21547815,0.05746084,9.63426781,0.00958738,-0.00106526,0.01278317
1691753490330084,-0.16759412,0.07182605,9.93114853,0.01384844,0.00852212,0.01597897
1691753490332192,0.09576806,0.22984336,9.62469101,0.02769688,0.01597897,0.02450108
1691753490334106,-0.18195933,-0.00957681,9.91678333,0.03195793,0.02450108,0.02450108
1691753490336282,-0.21547815,0.28730419,9.76834297,0.03302320,0.02450108,0.02237055
1691753490338094,0.03351882,-0.09576806,9.85453415,0.03834952,0.02556635,0.02876214
1691753490340140,-0.13407530,-0.03351882,9.95030212,0.04580637,0.02556635,0.02876214
1691753490342104,0.22505496,0.19632454,9.68215179,0.00958738,0.02343582,0.02024002
1691753490344073,0.10534488,-0.11971009,9.85453415,0.00426106,0.00958738,0.02130529
1691753490346194,-0.12928689,0.13407530,9.92157173,-0.00319579,0.00000000,0.00319579
1691753490348071,0.17238252,0.16280572,9.77313137,-0.00213053,0.00319579,-0.00745685
1691753490350100,0.03830723,0.03830723,9.97424412,-0.00639159,0.00213053,0.00000000
1691753490352142,0.07661445,0.34476504,9.76355457,-0.01278317,0.00852212,0.01171791
1691753490354169,0.08619126,-0.13886370,9.83538055,-0.01171791,0.00958738,0.00639159
1691753490356105,-0.11971009,0.11492168,9.85453415,-0.01065264,0.01810949,-0.00213053
1691753490358047,0.05746084,0.22505496,9.74440098,0.00213053,0.01917476,0.00745685
1691753490360093,-0.01915361,-0.09097967,9.89762974,0.00958738,0.02237055,-0.00106526
1691753490362117,0.05746084,0.30166942,9.75876617,0.01810949,0.02237055,0.00319579
1691753490364252,0.11492168,-0.02394202,9.80186176,0.01917476,0.02663161,0.00319579
1691753490366071,-0.02873042,0.11013328,9.83059216,0.02237055,0.02982740,0.00958738
1691753490368007,0.04309563,0.18674773,9.77791977,0.02024002,0.03621899,0.00319579
1691753490370099,-0.08619126,-0.16280572,9.88326454,0.01171791,0.04154531,0.00745685
1691753490372287,0.00957681,0.24420857,9.84016895,0.00532632,0.03408846,0.00213053
1691753490374118,-0.05746084,-0.22505496,9.90241814,-0.03089267,0.04580637,-0.00852212
1691753490376145,0.00000000,-0.01436521,9.88326454,-0.03515373,0.05006743,-0.01597897
1691753490378081,0.00957681,-0.07661445,9.86889935,-0.01384844,0.03941479,-0.00426106
1691753490380073,0.00000000,-0.03830723,9.86411095,-0.00106526,0.03089267,-0.00532632
1691753490382125,0.08619126,0.39743748,9.86411095,0.00958738,0.02769688,-0.00532632
1691753490384069,0.02873042,0.04309563,9.88805294,0.01704423,0.02237055,-0.01810949
1691753490386303,0.00478840,0.00957681,9.80186176,0.03195793,0.01491370,-0.00213053
1691753490388094,0.05267244,0.05267244,9.80665016,0.04900216,0.00319579,0.00958738
1691753490390155,-0.01436521,-0.05746084,9.85932255,0.04900216,0.00319579,0.01704423
1691753490392067,0.16280572,0.36391866,9.91199493,0.04367584,0.00213053,0.01278317
1691753490394125,0.08140286,0.03351882,9.89762974,0.04261058,-0.00532632,0.01384844
1691753490396151,-0.03830723,0.01915361,9.77791977,0.03834952,-0.01171791,-0.00639159
1691753490398099,0.19632454,0.27772740,9.92157173,0.03195793,-0.01491370,0.00319579
1691753490400179,-0.09097967,-0.17238252,9.92157173,0.01810949,-0.01065264,0.01171791
1691753490402154,0.11492168,0.22026655,9.84974575,0.01704423,-0.00958738,0.00958738
1691753490404138,0.11013328,0.06224924,9.96945572,0.02876214,-0.00852212,0.00213053
1691753490406109,-0.12449849,0.07661445,9.71088219,0.03621899,0.00213053,0.00639159
1691753490408104,0.21547815,0.33039984,9.79707336,0.03834952,0.00639159,0.00000000
1691753490410096,-0.14844051,-0.07661445,9.80665016,0.03195793,0.01491370,-0.00532632
1691753490412136,0.01436521,0.32082301,9.63426781,0.01917476,0.02024002,-0.00532632
1691753490414113,0.05746084,0.02873042,9.90241814,0.01065264,0.02876214,0.00106526
1691753490416121,-0.24420857,-0.00478840,9.67736340,0.00958738,0.03515373,0.00426106
1691753490418068,0.24420857,0.24420857,9.72524738,0.00000000,0.04793690,0.00106526
1691753490420170,-0.10055647,-0.08619126,9.93114853,-0.00213053,0.04793690,-0.00106526
1691753490422261,0.07182605,0.29688102,9.61511421,0.00852212,0.04367584,0.00000000
1691753490424117,0.20111294,0.08619126,9.88326454,0.00639159,0.05326322,-0.00106526
1691753490426292,-0.23942018,0.07182605,9.81622696,0.00106526,0.05432849,-0.00106526
1691753490428087,0.26336220,0.01436521,9.83538055,0.00319579,0.05645901,-0.00319579
1691753490430117,-0.14844051,-0.19632454,9.94072533,0.00213053,0.05752428,-0.00958738
1691753490432116,-0.06703765,0.22984336,9.62947941,0.00426106,0.05752428,-0.00958738
1691753490434077,0.30166942,0.04788403,9.81143856,0.01171791,0.04048005,-0.00106526
1691753490436114,-0.18195933,0.02873042,9.91678333,0.02556635,0.04687164,-0.00639159
1691753490438185,0.19632454,0.35434186,9.59117222,0.03408846,0.04048005,-0.00958738
1691753490440114,0.07661445,-0.08140286,9.95030212,0.03941479,0.02556635,-0.00426106
1691753490442083,-0.09097967,0.24899697,9.80186176,0.04793690,0.02237055,0.00319579
1691753490444077,0.27772740,-0.04788403,9.90720654,0.04367584,0.02663161,0.00000000
1691753490446168,-0.12928689,-0.13886370,10.09395409,0.03089267,0.02556635,0.00213053
1691753490448118,0.16759412,0.31603462,9.82101536,0.02024002,0.02343582,0.00639159
1691753490450111,0.10055647,-0.20111294,10.08437729,0.02450108,0.01917476,0.01384844
1691753490452274,-0.02873042,0.23942018,9.93114853,0.02876214,0.02130529,0.01597897
1691753490454131,0.11971009,-0.17238252,9.99818611,0.02343582,0.01384844,0.02982740
1691753490456122,-0.11492168,-0.16759412,10.00297451,0.01491370,0.01171791,0.02450108
1691753490458056,0.02394202,0.35434186,9.79707336,0.01278317,0.01597897,0.02769688
1691753490460077,0.05746084,-0.16759412,9.96945572,0.01810949,0.02982740,0.01810949
1691753490462160,0.00000000,0.17717093,9.82580376,0.00319579,0.02982740,0.01384844
1691753490464161,0.25378537,0.15322891,9.80186176,-0.00745685,0.02556635,0.01171791
1691753490466097,0.02873042,-0.21068975,9.92636013,0.00319579,0.03834952,0.00639159
1691753490468069,0.05746084,0.42137951,9.73961258,0.01278317,0.04474111,0.01065264
1691753490470166,-0.00478840,-0.09097967,9.88326454,0.00426106,0.04154531,0.00426106
1691753490472108,-0.10055647,0.06703765,9.80186176,0.00213053,0.04580637,0.01597897
1691753490474082,0.09097967,0.06703765,9.80665016,0.00000000,0.04580637,0.01065264
1691753490476092,0.00000000,-0.30166942,9.89284134,0.00532632,0.04900216,0.00958738
1691753490478035,0.11971009,0.38786069,9.82101536,0.01704423,0.04687164,0.00532632
1691753490480211,0.03830723,-0.04788403,9.91199493,0.03089267,0.03515373,0.01384844
1691753490482079,0.01915361,0.14365210,9.80186176,0.02876214,0.02769688,0.02237055
1691753490484089,0.16759412,0.27293900,9.84495735,0.03089267,0.02343582,0.02343582
1691753490486142,-0.02394202,-0.32082301,9.92636013,0.02343582,0.01917476,0.02556635
1691753490488097,0.13886370,0.28251579,9.88805294,0.00745685,0.01171791,0.02024002
1691753490490089,0.01915361,-0.04788403,9.94551373,-0.02024002,0.01278317,0.02130529
1691753490492081,0.04788403,0.04309563,9.81143856,-0.01171791,0.00426106,0.02663161
1691753490494115,0.22026655,0.30166942,9.95509052,0.00106526,0.00745685,0.03195793
1691753490496086,0.00478840,-0.14365210,9.89284134,0.00319579,0.01171791,0.02663161
1691753490498077,0.19632454,0.34476504,9.85932255,0.00639159,0.00000000,0.02237055
1691753490500096,-0.07661445,-0.03351882,9.94072533,0.02024002,0.00106526,0.02343582
1691753490502196,-0.08140286,-0.05267244,9.78749657,0.01384844,0.01704423,0.01171791
1691753490504102,0.19153613,0.32082301,9.91199493,0.00745685,0.01704423,0.01810949
1691753490506064,-0.06224924,-0.14365210,9.78749657,0.00639159,0.02024002,0.01065264
1691753490508053,0.24899697,0.28251579,9.73482418,0.00852212,0.02769688,0.00958738
1691753490510264,0.01915361,0.16759412,9.93593693,0.01704423,0.03089267,0.00745685
1691753490512125,-0.10534488,0.09097967,9.62469101,0.00319579,0.02024002,0.02024002
1691753490514218,0.14365210,0.30645782,9.87847614,-0.00319579,0.02450108,0.01704423
1691753490516114,-0.24899697,-0.18674773,9.85453415,0.00426106,0.02237055,0.01384844
1691753490518059,0.22984336,0.12928689,9.66299820,0.01278317,0.01384844,0.01278317
1691753490520139,0.06703765,0.02873042,10.04128170,0.00213053,0.01171791,0.01704423
1691753490522105,-0.06703765,0.03830723,9.66778660,-0.00639159,0.01491370,0.02237055
1691753490524126,0.37349546,0.33518824,9.79707336,-0.00213053,0.02982740,0.02024002
1691753490526067,-0.11971009,-0.31124622,9.89762974,0.00852212,0.03834952,0.00852212
1691753490528114,0.24899697,-0.17717093,10.06043530,0.01384844,0.04261058,0.00852212
1691753490530151,-0.41180268,-0.56981999,10.00776291,0.02024002,0.07137272,0.01704423
1691753490532129,0.02394202,-0.18674773,9.73003578,0.02876214,0.08948221,0.01065264
1691753490534071,0.00957681,-0.23463176,10.08437729,0.03834952,0.09800433,0.00958738
1691753490536215,-0.41659111,-0.29209262,9.90720654,0.04580637,0.10759171,0.01384844
1691753490538083,0.16759412,-0.03830723,9.89762974,0.05965481,0.10333065,0.02876214
1691753490540105,-0.29209262,-0.26336220,9.96466732,0.06072007,0.09587380,0.02556635
1691753490542078,-0.02873042,0.03830723,9.50976944,0.06285060,0.07350325,0.03834952
1691753490544115,0.28251579,-0.06703765,9.81143856,0.05645901,0.05645901,0.03515373
1691753490546130,-0.13886370,-0.10534488,9.74918938,0.04154531,0.03408846,0.03834952
1691753490548101,0.33997664,0.25857377,9.27992535,0.03408846,0.01704423,0.03515373
1691753490550123,0.10534488,-0.02394202,9.46188545,0.04261058,-0.02343582,0.02769688
1691753490552165,0.03830723,0.18674773,8.86812305,0.02130529,-0.03941479,0.01491370
1691753490554130,0.25378537,0.09576806,8.67658710,0.00426106,-0.05539375,-0.00532632
1691753490556098,0.01915361,-0.10534488,8.49941635,0.01491370,-0.07350325,0.00319579
1691753490558078,0.11492168,0.11971009,7.96311474,0.00852212,-0.08948221,-0.00852212
1691753490560102,0.07182605,0.00478840,7.97269154,0.00106526,-0.11504856,-0.00639159
1691753490562107,-0.04309563,0.06224924,7.61835003,-0.00106526,-0.09693906,0.00213053
1691753490564119,0.01436521,-0.00478840,7.36456442,0.00106526,-0.13422331,-0.00852212
1691753490566125,-0.09576806,0.14365210,7.35498762,0.00958738,-0.13315806,0.01384844
1691753490568059,-0.02873042,0.15322891,7.09641361,-0.00639159,-0.13528858,0.00213053
1691753490570154,-0.07182605,0.00957681,6.96712685,0.00106526,-0.16618125,0.00000000
1691753490572144,-0.19153613,0.22505496,6.86178207,0.00106526,-0.13422331,0.01171791
1691753490574077,0.13886370,-0.01915361,6.73728371,0.00852212,-0.17044231,-0.01171791
1691753490576124,-0.18195933,0.09576806,6.66545773,0.01917476,-0.16618125,0.00426106
1691753490578098,-0.20111294,0.18195933,6.57447767,0.00958738,-0.12357067,-0.00639159
1691753490580087,-0.05746084,0.05746084,6.56490088,0.02556635,-0.15552860,-0.01278317
1691753490582130,-0.15322891,0.13407530,6.37815332,0.04048005,-0.12250541,-0.01171791
1691753490584075,-0.09097967,0.29688102,6.31111574,0.05219796,-0.09267800,-0.00958738
1691753490586115,-0.04309563,0.23942018,6.35421133,0.09693906,-0.09587380,0.00213053
1691753490588115,-0.12449849,0.07661445,6.16746378,0.12463594,-0.03941479,-0.00319579
1691753490590087,-0.11492168,0.30166942,6.20098257,0.14061491,-0.03728426,0.00106526
1691753490592124,-0.15322891,0.29209262,6.22971296,0.15872440,-0.02982740,0.00745685
1691753490594073,-0.17238252,0.03830723,6.16267538,0.15872440,-0.00852212,0.01491370
1691753490596187,-0.19632454,0.20111294,6.23928976,0.15978967,-0.02130529,0.02343582
1691753490598081,-0.11971009,0.21068975,6.29196215,0.12996227,-0.01704423,0.02130529
1691753490600112,-0.06703765,-0.09097967,6.32548094,0.12783173,-0.03834952,0.03408846
1691753490602136,-0.04309563,-0.01915361,6.36378813,0.12570120,-0.03941479,0.02343582
1691753490604149,0.02873042,0.04309563,6.43561411,0.10439591,-0.04580637,-0.00106526
1691753490606095,0.07182605,-0.09576806,6.49786329,0.08202536,-0.06711166,-0.00745685
1691753490608107,0.08619126,-0.21547815,6.63193893,0.04367584,-0.07776430,-0.01491370
1691753490610079,0.06703765,-0.10055647,6.64151573,0.03941479,-0.08948221,-0.01917476
1691753490612133,0.12928689,0.04309563,6.62715054,0.03515373,-0.09587380,-0.02237055
1691753490614101,0.10534488,-0.19153613,6.83305168,0.01810949,-0.11717909,-0.01171791
1691753490616177,0.04788403,-0.10534488,6.80910969,0.00958738,-0.13102752,-0.01171791
1691753490618052,0.09576806,0.11971009,6.78037930,-0.00639159,-0.12250541,-0.00852212
1691753490620143,0.01436521,-0.05267244,6.99106884,-0.00426106,-0.13635385,-0.01065264
1691753490622254,-0.01915361,-0.09097967,6.93839645,-0.00852212,-0.13848437,0.00852212
1691753490624087,-0.04309563,0.14844051,6.93360806,-0.02663161,-0.13635385,-0.00319579
1691753490626117,-0.14365210,0.06703765,7.19697046,-0.01597897,-0.12357067,-0.00639159
1691753490628126,-0.10534488,-0.01436521,7.11556768,-0.01278317,-0.11717909,0.00958738
1691753490630125,-0.12928689,0.14844051,7.16345167,-0.02130529,-0.13209279,0.01278317
1691753490632091,-0.25378537,0.12928689,7.40766001,-0.04048005,-0.10546118,0.00106526
1691753490634106,-0.16280572,0.01915361,7.32146883,-0.04367584,-0.08522116,0.00426106
1691753490636181,-0.18674773,0.17238252,7.34541082,-0.04261058,-0.09267800,0.00745685
1691753490638097,-0.27772740,0.12449849,7.58483076,-0.05752428,-0.08202536,-0.00213053
1691753490640134,-0.20111294,0.01436521,7.51300478,-0.04048005,-0.05539375,-0.00852212
1691753490642074,-0.12449849,0.11492168,7.59919596,-0.01810949,-0.04154531,0.00532632
1691753490644123,-0.18195933,-0.00957681,7.77636719,-0.01810949,-0.03834952,0.01384844
1691753490646139,-0.14365210,-0.10055647,7.70932961,-0.01810949,-0.02663161,0.01597897
1691753490648101,-0.08619126,0.04788403,7.88650036,-0.00213053,-0.01810949,0.00852212
1691753490650100,-0.11492168,-0.08140286,8.04930592,-0.00106526,-0.00745685,0.02024002
1691753490652146,-0.07182605,-0.04788403,7.93917274,-0.01917476,0.00745685,0.01491370
1691753490654132,-0.09097967,0.03351882,8.15943909,-0.02876214,0.00426106,0.01278317
1691753490656117,-0.16759412,-0.03830723,8.20732307,-0.02450108,0.02024002,0.00106526
1691753490658079,-0.06224924,0.11492168,8.14028549,-0.04048005,0.02876214,-0.00745685
1691753490660101,-0.10534488,0.10534488,8.37012959,-0.03302320,0.02556635,-0.00213053
1691753490662162,-0.08140286,0.11013328,8.36534119,-0.02769688,0.03515373,-0.00639159
1691753490664128,0.10534488,0.25857377,8.39885998,-0.02024002,0.03834952,-0.00745685
1691753490666092,0.05746084,0.07182605,8.57603073,-0.02663161,0.04048005,-0.01065264
1691753490668091,0.08140286,0.13407530,8.57124233,-0.01917476,0.03302320,0.00639159
1691753490670147,0.14365210,0.17717093,8.69574070,-0.02237055,0.03621899,-0.00319579
1691753490672104,0.05267244,0.02394202,8.74841309,-0.04793690,0.04048005,0.00958738
1691753490674147,0.04788403,0.18195933,8.77235508,-0.07563377,0.04048005,0.00745685
1691753490676075,-0.00478840,0.09097967,8.84896946,-0.07137272,0.04474111,0.00319579
1691753490678085,0.03351882,0.05267244,8.81545067,-0.07137272,0.05006743,0.00319579
1691753490680121,0.02394202,0.12449849,8.93037224,-0.06817693,0.05006743,0.00426106
1691753490682129,0.00957681,-0.16280572,8.94473743,-0.05326322,0.04900216,-0.00213053
1691753490684097,0.07661445,0.05746084,8.94473743,-0.04367584,0.05752428,-0.01597897
1691753490686118,-0.10055647,0.12449849,9.07402420,-0.05965481,0.06178534,0.00106526
1691753490688171,-0.03351882,-0.05746084,8.99262142,-0.06391586,0.05219796,0.00213053
1691753490690136,0.04788403,0.26336220,9.09317780,-0.05006743,0.06498113,-0.00532632
1691753490692106,-0.02394202,0.13407530,9.15542698,-0.04367584,0.07350325,-0.00639159
1691753490694087,0.23463176,0.07661445,9.04050541,-0.04048005,0.06072007,-0.00106526
1691753490696149,0.07661445,0.23463176,9.28950214,-0.03515373,0.06285060,0.00106526
1691753490698119,-0.07182605,-0.09576806,9.15542698,-0.03408846,0.07137272,0.00106526
1691753490700080,0.16280572,0.15322891,9.15063858,-0.03728426,0.05858954,0.00000000
1691753490702154,-0.20590134,0.17717093,9.33259869,-0.03302320,0.05539375,0.00319579
1691753490704161,-0.00957681,-0.11971009,9.05008221,-0.02237055,0.06072007,-0.00106526
1691753490706271,0.21547815,0.19632454,9.30386734,-0.01597897,0.05858954,0.00426106
1691753490708085,-0.11492168,-0.03830723,9.29907894,-0.03195793,0.05858954,0.00745685
1691753490710113,0.22026655,-0.03830723,9.14585018,-0.03408846,0.05752428,0.00639159
1691753490712147,0.02873042,0.24420857,9.50976944,-0.04154531,0.05858954,0.00106526
1691753490714085,-0.04788403,0.05746084,9.22725296,-0.03728426,0.06391586,-0.00213053
1691753490716127,0.25857377,0.15322891,9.35175228,-0.04900216,0.06924219,-0.00319579
1691753490718061,-0.11971009,0.13886370,9.58159542,-0.05326322,0.06711166,0.00000000
1691753490720147,0.17238252,-0.03351882,9.25598335,-0.05006743,0.07350325,0.00639159
1691753490722148,0.11013328,0.11971009,9.63905621,-0.03195793,0.07882957,0.00000000
1691753490724114,-0.16280572,0.04788403,9.54807663,-0.03408846,0.07563377,-0.00106526
1691753490726080,0.19153613,0.07182605,9.38048267,-0.03834952,0.07243798,0.00319579
1691753490728114,-0.12449849,0.14844051,9.75397778,-0.04474111,0.06711166,-0.00213053
1691753490730122,0.05267244,-0.00478840,9.43315506,-0.04793690,0.06285060,-0.00213053
1691753490732126,0.26336220,0.03830723,9.69651699,-0.04154531,0.05326322,-0.00106526
1691753490734093,-0.09576806,0.07182605,9.78749657,-0.03728426,0.05006743,-0.00958738
1691753490736120,0.22984336,0.11492168,9.47625065,-0.03408846,0.05539375,-0.00745685
1691753490738109,0.01436521,0.14844051,9.83059216,-0.02982740,0.05326322,-0.00213053
1691753490740115,-0.02873042,0.11971009,9.56723022,-0.03408846,0.04687164,0.00319579
1691753490742185,0.24899697,0.04309563,9.65342140,-0.03834952,0.03941479,-0.00532632
1691753490744132,-0.08619126,-0.01915361,9.85453415,-0.02556635,0.04580637,-0.00106526
1691753490746204,0.06703765,0.04309563,9.54807663,-0.01278317,0.05539375,-0.00319579
1691753490748094,0.02394202,0.02394202,9.87847614,-0.02130529,0.05219796,-0.00213053
1691753490750148,-0.06703765,0.05746084,9.72524738,-0.02343582,0.05965481,-0.00852212
1691753490752150,0.21068975,0.06703765,9.76355457,-0.02130529,0.06817693,-0.00426106
1691753490754142,0.03830723,-0.00957681,9.92636013,-0.03302320,0.07669904,-0.00532632
1691753490756124,0.10534488,0.15801731,9.66299820,-0.04580637,0.07137272,-0.00745685
1691753490758079,-0.01436521,0.04788403,9.88326454,-0.04580637,0.07350325,0.00213053
1691753490760116,-0.14844051,0.09097967,9.74440098,-0.02876214,0.07989483,0.00106526
1691753490762163,0.09097967,0.13407530,9.75876617,-0.02450108,0.08202536,0.00426106
1691753490764129,-0.04788403,-0.09097967,9.90720654,-0.00958738,0.07776430,0.00958738
1691753490766081,0.08619126,0.08619126,9.77313137,-0.01384844,0.07776430,0.01065264
1691753490768072,0.10055647,0.22026655,9.81622696,-0.01384844,0.07882957,-0.00106526
1691753490770137,-0.03351882,-0.07182605,9.89762974,-0.02130529,0.07456851,0.00213053
1691753490772138,0.18674773,0.31124622,9.80665016,-0.01917476,0.07669904,-0.00532632
1691753490774093,0.01915361,-0.01915361,9.92157173,-0.01384844,0.07563377,-0.00639159
1691753490776130,0.01436521,0.06703765,9.86411095,-0.01065264,0.06924219,-0.00852212
1691753490778108,0.03830723,-0.01915361,9.91199493,-0.02130529,0.05965481,-0.00319579
1691753490780095,0.04309563,-0.00957681,9.90241814,-0.04048005,0.05752428,-0.01917476
1691753490782108,0.19153613,0.08619126,9.79228497,-0.05219796,0.06072007,-0.01065264
1691753490784086,0.05267244,0.05267244,9.95030212,-0.04793690,0.05432849,-0.01278317
1691753490786054,-0.07182605,-0.03830723,9.84974575,-0.04261058,0.05432849,-0.00426106
1691753490788105,0.08140286,0.16759412,9.90241814,-0.02982740,0.06285060,-0.00106526
1691753490790158,-0.04309563,0.04309563,9.91678333,-0.02769688,0.06604639,0.00958738
1691753490792092,0.09576806,0.14365210,9.84016895,-0.03621899,0.05965481,0.00639159
1691753490794094,0.10534488,0.17717093,9.95509052,-0.04793690,0.06391586,0.00319579
1691753490796188,-0.08619126,0.02394202,9.85453415,-0.05006743,0.07030746,0.00426106
1691753490798104,0.11971009,0.16280572,10.00776291,-0.04261058,0.06711166,-0.00319579
1691753490800093,-0.18674773,0.03830723,9.99339771,-0.04048005,0.06285060,-0.00532632
1691753490802157,0.04788403,-0.07182605,9.79228497,-0.03621899,0.06178534,-0.01278317
1691753490804170,-0.17238252,0.13407530,10.10831928,-0.03089267,0.05752428,0.00000000
1691753490806120,-0.05746084,-0.00957681,9.95509052,-0.02343582,0.05006743,-0.00213053
1691753490808060,0.31124622,0.14365210,9.93114853,-0.02237055,0.04900216,0.00745685
1691753490810127,-0.15801731,-0.05746084,10.05564690,-0.02982740,0.04261058,0.00319579
1691753490812168,0.11013328,-0.01915361,9.87368774,-0.05006743,0.04154531,0.00639159
1691753490814139,0.04788403,0.06703765,10.17056847,-0.07137272,0.04474111,0.00106526
1691753490816142,-0.20590134,-0.04309563,10.10353088,-0.07989483,0.04367584,0.00000000
1691753490818065,0.28251579,-0.01915361,9.95030212,-0.08202536,0.04474111,0.00745685
1691753490820131,-0.09576806,0.17717093,10.29506683,-0.07456851,0.04367584,0.01278317
1691753490822216,0.21547815,-0.02873042,9.91678333,-0.05539375,0.04474111,0.00745685
1691753490824096,0.14365210,0.16759412,10.12268448,-0.05326322,0.05006743,0.00319579
1691753490826143,-0.18674773,0.20590134,10.13704967,-0.05645901,0.05858954,0.01171791
1691753490828094,0.18674773,0.10534488,10.09395409,-0.05858954,0.04793690,0.01171791
1691753490830118,-0.12449849,0.14365210,10.29985619,-0.05113269,0.04900216,0.00745685
1691753490832127,0.23463176,0.05267244,9.93593693,-0.03089267,0.05645901,-0.00639159
1691753490834112,0.20590134,0.07661445,10.11310768,-0.02663161,0.05113269,-0.00745685
1691753490836133,-0.11971009,0.29209262,10.17535686,-0.03515373,0.03621899,-0.00213053
1691753490838110,0.22505496,0.02873042,9.95030212,-0.03515373,0.04580637,-0.00745685
1691753490840090,-0.00957681,0.09097967,10.27112484,-0.03408846,0.04367584,-0.01065264
1691753490842103,-0.01436521,0.11492168,9.99339771,-0.03941479,0.03941479,0.00000000
1691753490844121,0.12449849,-0.02873042,10.07480049,-0.04367584,0.03621899,0.00426106
1691753490846205,-0.16759412,0.15801731,10.16578007,-0.03834952,0.03728426,-0.00319579
1691753490848095,0.24899697,-0.01915361,9.98860931,-0.03941479,0.04261058,-0.00745685
1691753490850088,0.12449849,0.09097967,10.21845245,-0.03728426,0.04367584,-0.00639159
1691753490852119,0.05267244,0.19153613,9.98860931,-0.04474111,0.03302320,-0.00213053
1691753490854160,0.06703765,-0.01436521,10.18493366,-0.04793690,0.03621899,0.00745685
1691753490856116,-0.13886370,0.20590134,10.09874249,-0.03728426,0.04367584,0.00532632
1691753490858070,0.06703765,-0.07182605,9.94551373,-0.02663161,0.04261058,0.00213053
1691753490860132,0.01915361,-0.08140286,10.12268448,-0.02343582,0.03621899,-0.00213053
1691753490862159,0.03351882,0.23942018,9.95030212,-0.02769688,0.03728426,0.00000000
1691753490864185,0.12449849,-0.05746084,9.99339771,-0.02024002,0.04154531,0.00106526
1691753490866147,-0.01915361,0.15322891,9.95509052,-0.02130529,0.05113269,0.00106526
1691753490868061,0.10534488,0.14844051,9.91199493,-0.02130529,0.04580637,0.00213053
1691753490870138,-0.01915361,-0.05267244,10.06043530,-0.02663161,0.04261058,-0.00319579
1691753490872156,-0.03351882,0.18195933,9.96466732,-0.03195793,0.03941479,-0.00745685
1691753490874119,-0.00478840,-0.09097967,10.03170490,-0.04154531,0.04154531,0.00000000
1691753490876120,0.02873042,0.18674773,9.99818611,-0.04793690,0.02343582,0.00852212
1691753490878110,-0.01915361,-0.04309563,10.05085850,-0.04367584,0.01491370,0.00852212
1691753490880122,-0.10055647,0.11971009,10.05564690,-0.03302320,0.02130529,-0.00106526
1691753490882115,0.14365210,0.13407530,10.01255131,-0.02343582,0.01597897,0.00319579
1691753490884106,0.03351882,-0.05267244,10.12268448,-0.02237055,0.00426106,0.00426106
1691753490886122,0.11971009,0.19632454,10.03170490,-0.02663161,0.00958738,0.00852212
1691753490888113,0.04788403,0.05267244,10.07958889,-0.02450108,0.01597897,0.01171791
1691753490890120,-0.11013328,0.13886370,10.01733971,-0.01278317,0.01704423,0.01065264
1691753490892145,0.08140286,0.13407530,9.99339771,-0.02237055,0.00958738,0.00639159
1691753490894090,-0.10534488,-0.03351882,10.07001209,-0.02237055,0.01491370,0.02024002
1691753490896187,0.09576806,0.12928689,9.95987892,-0.01278317,0.01704423,0.02343582
1691753490898118,0.10055647,0.06703765,10.04128170,-0.00958738,0.01704423,0.02663161
1691753490900090,-0.09097967,0.20590134,9.96466732,-0.01810949,0.01810949,0.00958738
1691753490902250,0.17717093,0.20590134,9.90720654,-0.01384844,0.01810949,0.01597897
1691753490904157,-0.14365210,0.05267244,10.02691650,-0.00958738,0.01917476,0.01384844
1691753490906220,0.05746084,0.06224924,9.86411095,-0.01278317,0.01810949,0.01171791
1691753490908071,0.02394202,-0.03351882,10.05085850,-0.00639159,0.01597897,0.00639159
1691753490910147,-0.16280572,0.13407530,9.93593693,-0.00532632,0.02343582,0.00745685
1691753490912163,0.25378537,0.13407530,9.81143856,-0.01384844,0.02982740,0.01384844
1691753490914115,-0.06224924,0.15801731,10.03170490,-0.02024002,0.02556635,0.01917476
1691753490916153,0.10534488,0.16280572,9.79707336,-0.01171791,0.02237055,0.01597897
1691753490918108,0.06703765,0.01436521,9.97903252,0.00000000,0.02769688,0.01491370
1691753490920140,-0.23463176,0.13886370,9.95987892,-0.00213053,0.02237055,0.02130529
