timestamp,accel_x,accel_y,accel_z,gyro_x,gyro_y,gyro_z
1691761070805219,0.00478840,-0.08619126,9.87847614,-0.00319579,0.00426106,-0.00319579
1691761070807247,0.00957681,-0.04788403,9.90241814,-0.00745685,0.00532632,0.01065264
1691761070809274,0.00000000,0.03351882,9.87368774,-0.00319579,0.00319579,0.01810949
1691761070811228,-0.01436521,0.03830723,9.86889935,-0.00532632,-0.00213053,0.01597897
1691761070813262,-0.01915361,0.01436521,9.89284134,-0.00426106,-0.00213053,0.00426106
1691761070815271,-0.04309563,-0.07661445,9.87368774,0.00000000,-0.00426106,-0.01810949
1691761070817283,-0.03351882,-0.09097967,9.86889935,0.00213053,-0.00106526,-0.02024002
1691761070819252,-0.03351882,-0.03351882,9.88326454,0.00426106,0.00426106,-0.01491370
1691761070821257,0.01436521,0.00957681,9.87847614,-0.00319579,0.00639159,0.00213053
1691761070823283,0.01436521,-0.03830723,9.85453415,-0.00213053,0.00426106,0.01597897
1691761070825414,0.02873042,-0.04309563,9.86411095,-0.01278317,0.00319579,0.02343582
1691761070827233,-0.03830723,-0.00478840,9.89762974,-0.00532632,0.00000000,0.01065264
1691761070829228,-0.03351882,0.02873042,9.87368774,-0.00213053,0.00000000,0.00000000
1691761070831241,-0.06703765,0.02394202,9.84974575,0.00852212,-0.00426106,-0.01597897
1691761070833267,-0.05267244,-0.01915361,9.86411095,0.00213053,-0.00213053,-0.02024002
1691761070835275,0.00478840,-0.06703765,9.86889935,0.00213053,0.00532632,-0.00958738
1691761070837217,0.02873042,-0.06703765,9.84974575,-0.00213053,0.01171791,0.00426106
1691761070839205,-0.00478840,0.05746084,9.87847614,-0.00213053,0.00532632,0.02130529
1691761070841260,-0.00957681,0.02394202,9.90241814,0.00106526,0.00106526,0.02024002
1691761070843261,-0.00478840,0.05746084,9.85453415,-0.00319579,-0.00106526,0.01171791
1691761070845252,-0.01915361,-0.01915361,9.85932255,-0.00106526,-0.00426106,-0.00639159
1691761070847324,-0.07182605,-0.03351882,9.87847614,-0.00532632,-0.00319579,-0.01278317
1691761070849244,-0.05746084,0.00478840,9.87368774,0.00426106,0.00426106,-0.01491370
1691761070851252,0.00000000,0.05746084,9.83538055,0.00426106,0.00958738,0.00000000
1691761070853228,-0.00478840,-0.01436521,9.87847614,0.00319579,0.00639159,0.01278317
1691761070855234,-0.00478840,-0.01915361,9.87368774,-0.00852212,0.00639159,0.01491370
1691761070857270,0.00478840,0.03830723,9.84016895,-0.01065264,0.00213053,0.01171791
1691761070859241,-0.06703765,-0.01436521,9.88326454,-0.00958738,-0.00426106,0.00213053
1691761070861244,-0.09576806,0.02394202,9.86889935,0.00000000,-0.00745685,-0.01278317
1691761070863232,-0.02873042,-0.05267244,9.82101536,0.00319579,-0.00319579,-0.01491370
1691761070865314,0.00957681,-0.12449849,9.84495735,0.00532632,0.00745685,-0.00852212
1691761070867283,-0.01436521,-0.11492168,9.85453415,0.00000000,0.00745685,0.00639159
1691761070869209,-0.00957681,-0.01436521,9.83059216,0.00319579,0.00852212,0.01704423
1691761070871230,-0.01915361,0.01915361,9.84974575,0.00426106,0.00106526,0.01704423
1691761070873245,-0.02394202,0.07182605,9.83059216,0.00426106,-0.00213053,0.00319579
1691761070875423,-0.00957681,0.01436521,9.83059216,0.00639159,-0.00213053,-0.00958738
1691761070877217,-0.03830723,-0.08140286,9.81143856,0.00319579,0.00000000,-0.02024002
1691761070879235,-0.02873042,0.00957681,9.84016895,-0.00106526,0.00639159,-0.01065264
1691761070881249,0.00000000,0.04788403,9.82580376,-0.00106526,0.00852212,-0.00106526
1691761070883323,0.00957681,0.03351882,9.82101536,-0.00426106,0.00745685,0.01278317
1691761070885234,0.02873042,0.04309563,9.82580376,-0.00745685,0.00319579,0.01384844
1691761070887300,0.02394202,0.01915361,9.85453415,-0.01065264,0.00213053,0.01278317
1691761070889198,-0.01915361,0.04788403,9.85932255,-0.00319579,-0.00106526,-0.00319579
1691761070891278,-0.00957681,0.03351882,9.84495735,0.00213053,-0.00426106,-0.01278317
1691761070893305,-0.03830723,-0.03351882,9.85932255,-0.00106526,-0.00426106,-0.01278317
1691761070895238,-0.03830723,-0.09576806,9.83538055,-0.00532632,0.00426106,-0.00745685
1691761070897224,0.00957681,-0.07182605,9.82580376,-0.00852212,0.00745685,0.00852212
1691761070899253,0.07182605,0.04788403,9.84974575,-0.00745685,0.00426106,0.01810949
1691761070901264,-0.03830723,0.00957681,9.84974575,-0.00213053,0.00000000,0.01384844
1691761070903241,-0.08619126,-0.01436521,9.80186176,0.00106526,-0.00639159,0.00000000
1691761070905250,-0.06224924,-0.06224924,9.81622696,-0.00106526,-0.00319579,-0.01065264
1691761070907302,-0.03351882,-0.05746084,9.82101536,0.00213053,0.00106526,-0.01704423
1691761070909221,0.00478840,-0.01436521,9.81622696,0.00745685,0.00213053,-0.01278317
1691761070911226,-0.04788403,0.01436521,9.81622696,0.00852212,0.00426106,-0.00213053
1691761070913220,-0.02394202,0.02873042,9.84016895,0.00639159,0.00426106,0.01171791
1691761070915260,0.03351882,0.03830723,9.84495735,-0.00106526,0.00319579,0.02024002
1691761070917231,-0.00957681,-0.04309563,9.80665016,-0.00426106,0.00319579,0.01384844
1691761070919244,-0.03351882,0.06224924,9.84016895,-0.00852212,0.00106526,0.00213053
1691761070921229,-0.05746084,0.01915361,9.83538055,-0.00639159,-0.00106526,-0.01384844
1691761070923268,-0.07661445,-0.03830723,9.78749657,0.00000000,0.00106526,-0.01704423
1691761070925312,-0.01436521,-0.01915361,9.81143856,-0.00852212,0.00426106,-0.01171791
1691761070927224,0.00000000,-0.08619126,9.83538055,-0.01491370,0.00958738,0.00426106
1691761070929199,-0.00957681,0.04309563,9.81143856,-0.01810949,0.00639159,0.01065264
1691761070931256,-0.05746084,0.02394202,9.81143856,-0.01065264,0.00319579,0.00958738
1691761070933282,-0.06703765,0.05267244,9.84016895,-0.00852212,0.00106526,0.00000000
1691761070935266,-0.03830723,-0.01436521,9.81143856,0.00745685,-0.00426106,-0.00745685
1691761070937222,-0.04309563,-0.10055647,9.81143856,0.00532632,-0.00106526,-0.01278317
1691761070939233,-0.00957681,-0.04788403,9.84974575,0.00213053,0.00000000,-0.00745685
1691761070941231,-0.00478840,-0.00478840,9.86411095,0.00213053,0.00532632,0.00000000
1691761070943246,-0.01436521,-0.01436521,9.82580376,0.00532632,0.00532632,0.01065264
1691761070945226,0.04309563,0.05267244,9.85453415,-0.00213053,0.00426106,0.01597897
1691761070947220,0.00478840,-0.04309563,9.87368774,-0.00745685,0.00319579,0.01065264
1691761070949248,-0.05746084,-0.07182605,9.83059216,-0.00532632,-0.00106526,-0.00213053
1691761070951239,-0.03830723,0.02873042,9.85932255,-0.01065264,-0.00319579,-0.01278317
1691761070953277,-0.02873042,-0.02394202,9.84495735,0.00213053,0.00319579,-0.01171791
1691761070955255,0.02394202,-0.04788403,9.81622696,-0.00319579,0.00213053,-0.00745685
1691761070957292,0.04309563,-0.09576806,9.78270817,-0.00852212,0.00426106,0.00639159
1691761070959219,0.01436521,0.00957681,9.84495735,-0.01704423,0.00958738,0.01384844
1691761070961302,0.00957681,-0.01915361,9.84495735,-0.01065264,0.00213053,0.00958738
1691761070963288,-0.01915361,0.04788403,9.81143856,-0.00639159,0.00106526,0.00000000
1691761070965286,-0.03351882,-0.12449849,9.83059216,0.00213053,0.00106526,-0.01278317
1691761070967372,0.00000000,-0.13407530,9.83538055,-0.00213053,0.00000000,-0.01278317
1691761070969242,-0.00478840,-0.01915361,9.83538055,-0.00532632,0.00532632,-0.01597897
1691761070971230,-0.00478840,-0.01436521,9.91678333,-0.05113269,0.00426106,0.01491370
1691761070973239,-0.09097967,-0.05267244,9.98382092,-0.10013486,0.00319579,0.01384844
1691761070975339,-0.02394202,0.03351882,9.93114853,-0.12357067,0.00213053,-0.00213053
1691761070977330,-0.07661445,0.00000000,9.92157173,-0.05113269,0.00426106,-0.06285060
1691761070979215,-0.01915361,-0.02394202,9.90720654,-0.00852212,0.00639159,-0.07563377
1691761070981273,0.00478840,-0.02394202,9.90720654,-0.00639159,0.00745685,-0.03302320
1691761070983279,0.00478840,0.03830723,9.94072533,-0.01704423,0.00532632,-0.06817693
1691761070985313,-0.01436521,-0.02394202,9.95030212,-0.02343582,0.01810949,-0.05326322
1691761070987229,-0.00957681,0.02394202,9.95509052,-0.02663161,0.00639159,-0.08522116
1691761070989196,0.31124622,0.12449849,9.95030212,0.00958738,0.01278317,-0.11930962
1691761070991283,0.33518824,0.23942018,9.98860931,0.04474111,0.01917476,-0.11185277
1691761070993322,0.08140286,-0.04309563,9.84974575,0.06072007,0.01491370,-0.14061491
1691761070995247,0.09097967,-0.15322891,9.75397778,0.00745685,0.04793690,-0.15552860
1691761070997264,0.30645782,-0.10534488,9.98860931,-0.03941479,0.06178534,-0.18642128
1691761070999261,0.19153613,-0.27772740,9.93114853,-0.03408846,0.08948221,-0.19174761
1691761071001240,0.08140286,-0.18195933,9.71567059,-0.03621899,0.12037488,-0.21837921
1691761071003225,0.15801731,-0.10055647,9.91199493,0.04474111,0.14381070,-0.22477080
1691761071005224,0.11013328,-0.07182605,10.11310768,0.04154531,0.14168017,-0.23116238
1691761071007294,0.09576806,0.03351882,9.99818611,0.01704423,0.14594123,-0.22903186
1691761071009225,0.02873042,-0.20111294,10.12268448,0.06924219,0.16405073,-0.26098979
1691761071011217,0.10055647,0.08140286,10.21845245,0.11398330,0.18322548,-0.26951191
1691761071013219,0.14365210,0.16759412,10.30464458,0.06604639,0.16618125,-0.24074976
1691761071015245,-0.01915361,-0.20111294,10.67813969,0.02982740,0.14274544,-0.25246766
1691761071017267,0.20590134,0.13886370,10.62546730,0.11824435,0.15872440,-0.27909929
1691761071019233,0.17717093,0.09576806,10.84573364,0.10865697,0.15872440,-0.27696875
1691761071021224,0.14365210,0.01436521,11.26232433,0.05219796,0.12463594,-0.25885925
1691761071023241,0.12449849,0.05267244,11.27668953,0.04261058,0.10120012,-0.28016454
1691761071025322,-0.09097967,-0.28730419,11.54484081,0.10439591,0.13635385,-0.28762141
1691761071027183,0.03830723,0.12928689,11.73158836,0.05326322,0.12463594,-0.25353295
1691761071029202,-0.14365210,-0.08140286,11.83214474,0.03089267,0.12037488,-0.22583605
1691761071031250,-0.11013328,-0.21068975,11.90875912,0.05645901,0.15978967,-0.26418558
1691761071033407,-0.05267244,0.01915361,12.08114147,0.07350325,0.18002969,-0.26418558
1691761071035272,0.00000000,-0.05267244,12.23437023,0.02024002,0.17363811,-0.24607609
1691761071037225,-0.10055647,0.00478840,12.37323475,0.00426106,0.17896442,-0.23542345
1691761071039234,-0.29209262,-0.20590134,12.45942593,0.04367584,0.17470337,-0.26312032
1691761071041263,0.09097967,0.11971009,12.37323475,0.05645901,0.19494340,-0.27270770
1691761071043251,-0.16280572,-0.11971009,12.74194145,0.02982740,0.17470337,-0.27590349
1691761071045223,-0.07182605,-0.23942018,12.70842266,0.04367584,0.12570120,-0.27270770
1691761071047244,-0.16280572,-0.03351882,12.75151825,0.04687164,0.15339808,-0.28549087
1691761071049255,-0.15801731,-0.18674773,12.79940224,0.05006743,0.17363811,-0.26844662
1691761071051272,0.10055647,0.00957681,12.71321106,0.03941479,0.14487596,-0.27590349
1691761071053300,-0.26336220,-0.21068975,12.97657299,0.01704423,0.15765914,-0.27483824
1691761071055300,0.04309563,0.09097967,12.76109505,0.03515373,0.15446334,-0.27270770
1691761071057404,-0.15801731,-0.02873042,12.93347740,0.06924219,0.15446334,-0.27270770
1691761071059221,-0.07661445,-0.04309563,12.94305420,0.05113269,0.15552860,-0.27803403
1691761071061255,-0.01915361,0.09097967,12.87601662,0.06711166,0.11824435,-0.24288028
1691761071063235,-0.07182605,-0.08140286,12.92868900,0.06711166,0.10439591,-0.24501082
1691761071065263,0.11492168,0.02394202,12.80897903,0.05432849,0.11717909,-0.24607609
1691761071067316,-0.11492168,-0.12928689,12.94305420,0.06924219,0.06391586,-0.22690132
1691761071069259,0.11492168,0.09576806,12.71799946,0.06498113,0.05752428,-0.22370553
1691761071071232,-0.00957681,-0.07661445,12.86643982,0.07669904,0.04687164,-0.23542345
1691761071073255,0.02873042,-0.05267244,12.75630665,0.08948221,0.03941479,-0.23435818
1691761071075343,0.13886370,-0.04309563,12.67011547,0.06178534,0.05219796,-0.22583605
1691761071077492,-0.10055647,-0.16759412,12.67490387,0.05113269,0.06711166,-0.22157501
1691761071079205,-0.01436521,-0.10055647,12.36844635,0.03941479,0.11078750,-0.23116238
1691761071081302,-0.08619126,-0.08140286,12.46900272,0.02450108,0.13102752,-0.23222765
1691761071083354,0.00000000,-0.06224924,12.34450436,-0.00106526,0.10652644,-0.21305288
1691761071085254,-0.02394202,-0.10055647,12.22958183,-0.00958738,0.09587380,-0.20559603
1691761071087306,-0.19632454,-0.09576806,12.22000504,0.00213053,0.10759171,-0.20240024
1691761071089213,0.14365210,0.09097967,12.03325748,0.01917476,0.07776430,-0.17576863
1691761071091280,-0.06224924,0.04309563,12.09550667,0.00426106,0.05539375,-0.15126754
1691761071093249,0.00478840,-0.09576806,12.01889229,-0.01065264,0.04367584,-0.15339808
1691761071095241,0.12449849,0.00478840,11.90397072,-0.00745685,0.00532632,-0.13209279
1691761071097244,0.04309563,0.03351882,11.88002872,-0.01065264,-0.00426106,-0.13528858
1691761071099309,0.02394202,-0.02873042,11.82256794,-0.02130529,-0.02769688,-0.11930962
1691761071101253,0.01915361,0.14365210,11.72679996,-0.02450108,-0.03621899,-0.12144014
1691761071103253,0.08140286,-0.03830723,11.60230160,-0.02024002,-0.02130529,-0.09693906
1691761071105233,0.08140286,0.07661445,11.49695683,0.01065264,0.00532632,-0.11078750
1691761071107270,0.03830723,0.05746084,11.32936287,0.02663161,0.02237055,-0.06604639
1691761071109234,0.00478840,-0.05267244,11.27668953,0.00426106,0.04048005,-0.09054748
1691761071111244,-0.05746084,0.07182605,11.16176796,-0.00639159,0.05858954,-0.08096009
1691761071113288,-0.11492168,-0.02394202,11.09951878,-0.01491370,0.05539375,-0.09693906
1691761071115287,-0.10534488,0.10055647,11.09473038,-0.02130529,0.04580637,-0.07137272
1691761071117480,-0.02394202,0.11971009,10.97980881,-0.02769688,0.01917476,-0.09054748
1691761071119232,-0.09576806,0.09097967,10.91277122,-0.01065264,-0.00958738,-0.07563377
1691761071121254,-0.01915361,0.22505496,10.92713642,-0.01065264,-0.02343582,-0.08948221
1691761071123293,-0.04309563,0.07661445,10.88882923,-0.00319579,-0.05539375,-0.09054748
1691761071125365,-0.09097967,0.11013328,10.81221485,0.00319579,-0.07882957,-0.07030746
1691761071127360,0.00478840,0.16280572,10.77869606,0.01917476,-0.07989483,-0.07350325
1691761071129272,-0.05267244,-0.05267244,10.74996567,0.04900216,-0.04900216,-0.05858954
1691761071131275,-0.03830723,0.25857377,10.66377449,0.03941479,-0.02663161,-0.05645901
1691761071133338,-0.06224924,0.05746084,10.63025570,0.02663161,-0.01491370,-0.02343582
1691761071135261,-0.24420857,0.02394202,10.58237171,0.04048005,0.01917476,-0.04793690
1691761071137234,-0.20111294,0.21068975,10.45787334,0.03728426,0.06604639,-0.04261058
1691761071139221,-0.34955344,0.06224924,10.48660374,-0.00319579,0.09267800,-0.03302320
1691761071141268,-0.33518824,0.11492168,10.40520096,0.00958738,0.10013486,-0.03408846
1691761071143251,-0.18674773,0.09576806,10.38604736,0.02876214,0.11185277,-0.04154531
1691761071145228,-0.17717093,0.12449849,10.35252857,0.02024002,0.12250541,-0.04474111
1691761071147250,-0.02873042,0.14844051,10.19929886,-0.00532632,0.11185277,-0.03515373
1691761071149253,-0.13886370,-0.02873042,10.28070164,0.00319579,0.08415589,-0.03728426
1691761071151274,-0.12928689,-0.01915361,10.23281765,0.00213053,0.06391586,-0.02556635
1691761071153326,0.01915361,0.08619126,10.20887566,-0.01597897,0.03302320,-0.02343582
1691761071155232,-0.10055647,0.00000000,10.21366405,-0.01384844,0.00000000,-0.03089267
1691761071157297,0.01915361,0.10534488,10.04607010,-0.01597897,-0.03834952,-0.01065264
1691761071159244,0.13407530,0.18674773,10.16578007,-0.00745685,-0.07563377,-0.01810949
1691761071161238,0.11492168,0.02873042,10.18972206,0.00213053,-0.12463594,-0.00532632
1691761071163232,0.19153613,0.20111294,10.00297451,-0.00639159,-0.15233281,-0.00213053
1691761071165308,0.09576806,0.11013328,10.13226128,-0.00958738,-0.16298546,-0.00319579
1691761071167281,0.11971009,0.10055647,10.06043530,-0.00319579,-0.16618125,-0.00532632
1691761071169221,0.17238252,0.26815060,10.02212811,0.01704423,-0.16511598,0.02130529
1691761071171269,-0.00957681,0.06224924,10.18014526,0.02237055,-0.14168017,0.02024002
1691761071173276,-0.04309563,0.20111294,9.94551373,0.04367584,-0.10013486,0.00213053
1691761071175298,-0.12928689,0.23942018,9.87368774,0.04580637,-0.04048005,0.02237055
1691761071177305,-0.20111294,0.05267244,9.91678333,0.04900216,0.00000000,0.01278317
1691761071179225,-0.09576806,0.17238252,9.75397778,0.06072007,0.04474111,0.00852212
1691761071181255,-0.22505496,0.13886370,9.82580376,0.05006743,0.09054748,0.02982740
1691761071183265,-0.27772740,0.26336220,9.68215179,0.06924219,0.12889700,0.04367584
1691761071185235,-0.15322891,0.02873042,9.66299820,0.06924219,0.15020229,0.04261058
1691761071187251,-0.27293900,0.13407530,9.69651699,0.05326322,0.17044231,0.05432849
1691761071189223,-0.30645782,-0.12449849,9.69651699,0.03195793,0.17257284,0.05219796
1691761071191292,-0.26336220,0.01915361,9.69172859,0.02130529,0.15233281,0.04793690
1691761071193227,-0.26815060,-0.03351882,9.67736340,0.01597897,0.14274544,0.04261058
1691761071195244,-0.13886370,0.02873042,9.64863300,-0.01278317,0.13209279,0.02024002
1691761071197252,-0.03351882,0.13407530,9.73961258,-0.02343582,0.08948221,0.00000000
1691761071199283,0.00478840,-0.03830723,9.75876617,-0.02556635,0.07137272,-0.00213053
1691761071201260,0.02873042,0.13407530,9.72045898,-0.02024002,0.03941479,-0.01491370
1691761071203244,-0.04788403,0.07661445,9.81143856,-0.00213053,-0.01171791,-0.00639159
1691761071205239,-0.04788403,-0.07182605,9.79228497,0.00319579,-0.03515373,0.00106526
1691761071207323,0.00000000,0.08619126,9.74918938,0.00213053,-0.05219796,0.03089267
1691761071209236,0.04309563,-0.01915361,9.86411095,0.00852212,-0.08096009,0.02876214
1691761071211224,0.07182605,0.04788403,9.78749657,0.02343582,-0.07776430,0.05219796
1691761071213229,0.03351882,0.14844051,9.68694019,0.02024002,-0.05752428,0.06924219
1691761071215283,0.07182605,0.11492168,9.66778660,0.02876214,-0.04367584,0.03941479
1691761071217288,0.03351882,0.18195933,9.59117222,0.04793690,-0.01065264,0.05326322
1691761071219209,-0.18195933,0.14844051,9.66778660,0.03195793,0.01384844,0.04474111
1691761071221248,-0.20111294,0.10055647,9.59596062,0.02769688,0.01384844,0.05113269
1691761071223259,-0.23942018,0.12928689,9.53371143,0.02556635,0.03408846,0.05858954
1691761071225253,-0.33518824,0.03351882,9.67257500,0.02237055,0.04580637,0.06711166
1691761071227292,-0.06703765,0.14365210,9.61511421,0.00426106,0.03728426,0.03834952
1691761071229204,-0.11971009,0.15322891,9.67736340,0.00213053,0.03834952,0.04474111
1691761071231258,-0.14365210,0.09576806,9.70609379,0.01810949,0.03302320,0.05326322
1691761071233282,-0.02394202,0.21547815,9.64384460,0.03302320,0.03621899,0.02663161
1691761071235248,-0.10055647,0.26815060,9.79228497,0.05326322,0.04793690,0.03195793
1691761071237222,-0.09576806,0.15801731,9.72045898,0.04580637,0.04687164,0.03195793
1691761071239227,-0.06703765,0.21068975,9.68694019,0.04154531,0.02130529,0.02237055
1691761071241270,-0.10534488,0.07182605,9.83059216,0.06178534,0.02450108,0.03621899
1691761071243279,-0.00478840,0.08140286,9.75876617,0.07030746,0.03302320,0.04793690
1691761071245276,0.01436521,0.15801731,9.85453415,0.06072007,0.02130529,0.05539375
1691761071247220,0.02873042,0.02873042,9.88326454,0.05645901,0.00639159,0.05006743
1691761071249256,-0.00957681,0.15322891,9.77791977,0.06285060,0.01278317,0.05752428
1691761071251254,-0.11492168,0.11013328,9.95509052,0.03941479,0.02237055,0.05006743
1691761071253305,-0.00957681,0.03830723,9.92636013,0.02130529,0.02769688,0.04154531
1691761071255231,-0.08140286,-0.01436521,9.90720654,0.01597897,0.01384844,0.05645901
1691761071257293,-0.07182605,-0.05267244,10.00297451,0.02024002,0.00000000,0.04261058
1691761071259241,0.03351882,0.00957681,9.99339771,0.00852212,-0.02876214,0.01704423
1691761071261290,0.00478840,-0.04309563,10.07480049,-0.00852212,-0.05539375,0.01704423
1691761071263228,0.15801731,0.04788403,9.97903252,-0.02450108,-0.07776430,0.02556635
1691761071265242,0.10534488,0.06224924,9.99339771,-0.01704423,-0.09161274,0.01384844
1691761071267318,0.00957681,-0.03830723,10.02691650,-0.01171791,-0.09587380,0.02769688
1691761071269226,0.09576806,0.05267244,10.00297451,-0.01597897,-0.10333065,0.03089267
1691761071271236,-0.02394202,-0.07661445,10.07001209,-0.01917476,-0.11078750,0.03834952
1691761071273235,0.10055647,0.09097967,9.89284134,-0.00106526,-0.10759171,0.02663161
1691761071275278,0.05267244,0.11492168,10.01255131,0.01704423,-0.11078750,0.03515373
1691761071277266,0.00000000,0.00478840,10.01733971,0.00852212,-0.10865697,0.04048005
1691761071279206,0.10055647,0.10055647,9.78749657,-0.00852212,-0.12144014,0.04154531
1691761071281239,-0.10055647,-0.09576806,9.96466732,-0.00958738,-0.12463594,0.03941479
1691761071283342,0.00000000,-0.01436521,9.84016895,0.00106526,-0.13209279,0.03515373
1691761071285268,0.00957681,0.02873042,9.90241814,-0.00106526,-0.12357067,0.03195793
1691761071287217,-0.16759412,-0.16280572,10.06522369,-0.01171791,-0.13209279,0.03515373
1691761071289221,0.08140286,0.02394202,9.80186176,-0.01597897,-0.12463594,0.02130529
1691761071291278,-0.12449849,-0.02873042,10.11789608,-0.01917476,-0.11717909,0.02663161
1691761071293261,-0.05746084,0.00957681,10.07480049,-0.01278317,-0.11717909,0.01171791
1691761071295233,0.07661445,0.10534488,9.89284134,-0.01384844,-0.12250541,0.01704423
1691761071297231,-0.17717093,-0.16759412,10.15620327,-0.01597897,-0.11824435,0.02237055
1691761071299276,0.04309563,0.00957681,9.84974575,-0.01704423,-0.12463594,0.02982740
1691761071301267,-0.08140286,-0.00478840,10.03170490,-0.00532632,-0.13528858,0.03302320
1691761071303227,-0.20590134,-0.13886370,10.18493366,0.00319579,-0.14061491,0.03089267
1691761071305220,0.04309563,0.11013328,9.88805294,-0.00319579,-0.14487596,0.03515373
1691761071307316,-0.17717093,0.02394202,10.20408726,-0.01065264,-0.15552860,0.03302320
1691761071309232,0.00000000,0.09097967,9.97424412,-0.00852212,-0.15233281,0.04154531
1691761071311271,0.00957681,0.16280572,9.95030212,-0.01704423,-0.14700650,0.03089267
1691761071313220,-0.19632454,-0.13886370,10.18972206,-0.02769688,-0.15020229,0.04261058
1691761071315279,0.01915361,0.02394202,9.84016895,-0.04261058,-0.15233281,0.04580637
1691761071317247,-0.22505496,-0.02394202,10.15141487,-0.04580637,-0.16085494,0.04580637
1691761071319216,-0.14365210,-0.01436521,10.17535686,-0.04793690,-0.15978967,0.02343582
1691761071321258,0.02873042,0.17717093,10.02691650,-0.04474111,-0.15872440,0.03621899
1691761071323237,-0.18195933,-0.01915361,10.33337498,-0.04474111,-0.16085494,0.02769688
1691761071325300,0.11971009,0.12928689,9.99818611,-0.05326322,-0.14594123,0.02556635
1691761071327296,-0.05267244,0.08619126,10.12268448,-0.05113269,-0.13954964,0.01491370
1691761071329207,-0.15322891,-0.10534488,10.23760605,-0.05645901,-0.13102752,0.02130529
1691761071331407,0.01915361,0.11013328,9.93114853,-0.06178534,-0.12463594,0.00639159
1691761071333288,-0.13407530,-0.06224924,10.23281765,-0.03408846,-0.10333065,0.01065264
1691761071335269,-0.14365210,0.05746084,10.06043530,-0.02343582,-0.09693906,0.01597897
1691761071337268,-0.07182605,0.14844051,9.99339771,-0.01491370,-0.08415589,0.03195793
1691761071339483,-0.23942018,-0.04788403,10.22802925,-0.02237055,-0.06498113,0.02343582
1691761071341423,0.03351882,0.15322891,9.88805294,-0.01065264,-0.05432849,0.04261058
1691761071343278,-0.16759412,0.12449849,10.08437729,-0.01278317,-0.04687164,0.03408846
1691761071345302,-0.15322891,0.17238252,10.06043530,-0.01171791,-0.05326322,0.03941479
1691761071347233,-0.03351882,0.26336220,9.87847614,-0.01917476,-0.05965481,0.02130529
1691761071349265,-0.25378537,-0.11013328,10.13226128,-0.01065264,-0.06711166,0.02876214
1691761071351290,-0.02394202,0.07182605,9.89762974,-0.02343582,-0.07989483,0.03728426
1691761071353318,-0.14844051,0.04309563,9.99818611,-0.01704423,-0.11291803,0.03089267
1691761071355231,-0.17238252,-0.11013328,10.09874249,-0.00958738,-0.11398330,0.01597897
1691761071357288,0.11492168,0.17238252,9.86411095,-0.00319579,-0.11504856,0.00532632
1691761071359261,-0.08619126,-0.03351882,10.07480049,-0.01065264,-0.13528858,0.01917476
1691761071361285,0.01915361,0.02873042,9.88805294,-0.00639159,-0.13635385,0.01065264
1691761071363312,-0.01436521,0.02394202,9.87847614,-0.00532632,-0.12676647,0.02024002
1691761071365331,-0.14844051,-0.14365210,10.01733971,-0.01917476,-0.11930962,0.00852212
1691761071367341,-0.00957681,0.10534488,9.77313137,-0.02663161,-0.11930962,0.02130529
1691761071369228,-0.23942018,-0.06224924,9.91199493,-0.03621899,-0.09800433,0.01171791
1691761071371322,-0.15322891,-0.02873042,9.80186176,-0.02769688,-0.08628642,0.00745685
1691761071373280,-0.06703765,0.13407530,9.76355457,-0.02769688,-0.06391586,0.00852212
1691761071375322,-0.22984336,-0.12449849,9.91199493,-0.02769688,-0.04048005,0.00639159
1691761071377333,-0.01915361,0.04788403,9.71567059,-0.01810949,-0.05006743,-0.00319579
1691761071379228,-0.07661445,0.06224924,9.84974575,-0.01278317,-0.05752428,0.00000000
1691761071381291,-0.04309563,-0.00478840,9.81143856,-0.03089267,-0.05113269,0.00213053
1691761071383302,0.01915361,0.12928689,9.82101536,-0.04687164,-0.05219796,-0.00639159
1691761071385248,-0.14844051,-0.13407530,9.95987892,-0.04687164,-0.05965481,-0.01065264
1691761071387240,-0.03351882,-0.00957681,9.82101536,-0.03941479,-0.06072007,-0.00745685
1691761071389255,-0.13407530,0.07182605,10.05564690,-0.04474111,-0.07243798,-0.00213053
1691761071391296,-0.09576806,-0.07182605,9.96466732,-0.04687164,-0.07030746,-0.00532632
1691761071393255,-0.01436521,0.16759412,9.89762974,-0.03621899,-0.06285060,-0.00319579
1691761071395289,-0.09576806,0.06224924,10.09395409,-0.00852212,-0.05326322,0.01704423
1691761071397254,0.10055647,0.11013328,9.82580376,-0.00426106,-0.03408846,0.01810949
1691761071399285,-0.10055647,0.14844051,10.00776291,-0.00639159,-0.01065264,0.02876214
1691761071401291,-0.19632454,-0.00478840,9.89762974,0.00426106,-0.00958738,0.01917476
1691761071403323,-0.05267244,0.16280572,9.72045898,0.02130529,-0.01171791,0.03089267
1691761071405230,-0.26815060,0.05746084,10.12268448,0.01917476,-0.00639159,0.02237055
1691761071407304,0.05746084,0.01915361,9.79228497,0.01917476,-0.01597897,0.02130529
1691761071409262,0.05267244,0.07182605,9.93593693,0.01597897,-0.02556635,0.00213053
1691761071411321,-0.07182605,-0.03830723,10.05564690,-0.00319579,-0.02982740,-0.01278317
1691761071413237,0.15801731,0.21547815,9.73003578,-0.02663161,-0.02769688,-0.02556635
1691761071415287,-0.09576806,0.07182605,10.11310768,-0.04474111,-0.02982740,-0.02982740
1691761071417280,0.07182605,0.00478840,9.76355457,-0.04900216,-0.02556635,-0.01917476
1691761071419212,0.03830723,0.05746084,9.69651699,-0.05965481,-0.02769688,-0.01171791
1691761071421239,-0.14844051,-0.19153613,10.00297451,-0.05539375,-0.00532632,0.00852212
1691761071423272,0.01915361,0.02873042,9.57201862,-0.04793690,0.00639159,0.01065264
1691761071425347,-0.26336220,0.04309563,9.91199493,-0.03302320,0.00532632,0.02130529
1691761071427304,-0.17238252,0.01436521,9.82101536,-0.02024002,0.00426106,0.01278317
1691761071429224,-0.02873042,0.22505496,9.61032581,-0.00532632,0.00958738,0.01704423
1691761071431272,-0.16759412,0.07661445,9.99818611,-0.00319579,0.02237055,0.00426106
1691761071433276,0.18195933,0.14844051,9.62947941,0.00319579,0.01278317,0.00532632
1691761071435266,-0.00478840,0.19153613,9.81622696,0.00852212,0.00852212,0.00639159
1691761071437235,-0.08619126,0.07182605,10.00776291,0.01704423,0.00319579,0.00319579
1691761071439234,0.07661445,0.23463176,9.70609379,-0.00958738,0.01597897,-0.00319579
1691761071441253,-0.19632454,-0.01915361,9.99339771,-0.02769688,0.00213053,-0.01810949
1691761071443387,-0.06224924,-0.10055647,9.77313137,-0.03515373,0.00213053,-0.02130529
1691761071445235,-0.06224924,0.08619126,10.05085850,-0.04367584,0.01810949,-0.02450108
1691761071447222,-0.16759412,-0.08619126,10.03170490,-0.05219796,0.02130529,-0.01384844
1691761071449297,0.05746084,0.07182605,9.72524738,-0.05645901,0.02769688,-0.00532632
1691761071451230,-0.08140286,0.07182605,9.92636013,-0.04687164,0.04687164,-0.00639159
1691761071453232,0.06224924,0.10055647,9.86411095,-0.02343582,0.06072007,-0.01171791
1691761071455236,0.00478840,0.28251579,9.87368774,-0.01171791,0.06285060,-0.00426106
1691761071457294,-0.15322891,0.12449849,10.04128170,-0.00958738,0.05858954,0.00106526
1691761071459220,-0.05267244,0.17238252,9.89762974,-0.00852212,0.06391586,0.01278317
1691761071461235,-0.25378537,0.11971009,10.07001209,0.00213053,0.04793690,0.01597897
1691761071463236,-0.13407530,-0.00478840,10.01733971,-0.00532632,0.02982740,0.02130529
1691761071465241,-0.07661445,0.07182605,10.02212811,-0.01171791,0.01491370,0.01171791
1691761071467274,-0.15322891,-0.03351882,10.09874249,-0.00106526,-0.00958738,0.00639159
1691761071469214,0.10055647,0.08619126,9.92157173,0.00319579,-0.01491370,-0.00745685
1691761071471234,0.00478840,0.10534488,10.07958889,-0.01917476,-0.03621899,-0.03089267
1691761071473240,0.06703765,0.05267244,9.93114853,-0.02663161,-0.04261058,-0.02556635
1691761071475289,-0.05267244,0.05267244,9.91199493,-0.02237055,-0.04687164,-0.01491370
1691761071477235,-0.17238252,0.05267244,9.91678333,-0.02982740,-0.03621899,-0.00745685
1691761071479206,0.00000000,0.06703765,9.70130539,-0.03515373,-0.03728426,0.00426106
1691761071481240,-0.18674773,-0.05267244,9.99339771,-0.02556635,-0.02130529,0.01384844
1691761071483313,-0.06703765,-0.00957681,9.81143856,-0.02663161,0.00000000,-0.00426106
1691761071485264,-0.07661445,0.04788403,9.87368774,-0.01917476,-0.00958738,-0.00639159
1691761071487231,-0.20590134,0.12449849,10.05085850,-0.01597897,0.00426106,0.01278317
1691761071489238,-0.00957681,0.19153613,9.74440098,0.00213053,0.01171791,-0.00319579
1691761071491256,-0.18195933,0.08140286,10.03649330,0.00213053,0.01704423,-0.01917476
1691761071493287,-0.03830723,0.06224924,9.84974575,0.00958738,0.01384844,-0.01384844
1691761071495232,-0.10055647,0.07661445,9.81622696,0.01278317,0.03195793,-0.01171791
1691761071497252,-0.33518824,0.01915361,10.08437729,0.02450108,0.05965481,-0.01917476
1691761071499255,-0.19153613,0.05746084,9.65342140,0.04261058,0.07563377,-0.02982740
1691761071501255,-0.38307226,0.02394202,9.93593693,0.04154531,0.08735169,-0.02130529
1691761071503246,-0.26336220,0.00478840,9.89762974,0.05006743,0.08202536,-0.01278317
1691761071505230,-0.09097967,0.08140286,9.70609379,0.03621899,0.06924219,-0.00958738
1691761071507321,-0.27293900,0.07182605,10.13704967,0.03834952,0.04367584,-0.00532632
1691761071509242,0.04788403,0.13407530,9.73482418,0.03089267,0.05113269,0.00319579
1691761071511258,-0.04309563,0.18195933,9.81622696,0.03408846,0.05432849,-0.00639159
1691761071513230,-0.12449849,0.12449849,9.99818611,0.03302320,0.04793690,-0.00639159
1691761071515277,0.00000000,0.07661445,9.72045898,0.02876214,0.04367584,-0.00319579
1691761071517237,-0.30166942,-0.05746084,10.13704967,0.01597897,0.02663161,-0.00639159
1691761071519241,-0.15801731,-0.02873042,9.95987892,0.00319579,0.02130529,0.00426106
1691761071521239,-0.21547815,0.07182605,9.85453415,0.00639159,0.02130529,-0.00639159
1691761071523259,-0.22505496,0.08619126,10.05564690,-0.01384844,0.04367584,0.00532632
1691761071525296,0.02394202,0.08619126,9.73961258,-0.01597897,0.05326322,0.01171791
1691761071527403,-0.16280572,0.05746084,9.88805294,-0.00532632,0.08522116,0.01597897
1691761071529213,-0.07182605,0.08140286,9.84974575,0.01065264,0.10333065,-0.00639159
1691761071531337,-0.08619126,0.21547815,9.78270817,0.01384844,0.10439591,-0.02130529
1691761071533339,-0.17238252,-0.07182605,9.81622696,0.03834952,0.12037488,-0.01065264
1691761071535238,-0.15322891,0.08619126,9.73482418,0.04793690,0.11504856,-0.01810949
1691761071537317,-0.33518824,0.08619126,9.85453415,0.05432849,0.10759171,-0.01384844
1691761071539213,-0.19632454,-0.03830723,9.82580376,0.04580637,0.11398330,-0.01171791
1691761071541270,-0.16759412,-0.02394202,9.82101536,0.04048005,0.12250541,-0.01597897
1691761071543242,-0.22026655,0.06703765,9.82580376,0.04474111,0.11930962,-0.01065264
1691761071545270,-0.06224924,0.07661445,9.72524738,0.05006743,0.13741912,0.00319579
1691761071547268,-0.16759412,0.14365210,9.94072533,0.05645901,0.14381070,0.00000000
1691761071549258,0.00957681,0.17717093,9.80665016,0.06924219,0.11291803,-0.00958738
1691761071551262,-0.05746084,0.21068975,9.90720654,0.07350325,0.09693906,-0.00852212
1691761071553267,-0.22026655,0.19153613,9.95509052,0.07030746,0.07350325,-0.01278317
1691761071555235,0.00000000,0.09576806,9.70609379,0.06604639,0.05219796,-0.00213053
1691761071557264,-0.20111294,0.03830723,10.00776291,0.06604639,0.03941479,-0.00852212
1691761071559242,-0.04788403,0.01436521,9.82101536,0.05432849,0.04048005,-0.00745685
1691761071561295,-0.03830723,0.00000000,9.89284134,0.04048005,0.03195793,-0.00426106
1691761071563245,-0.15801731,0.05267244,10.07958889,0.03089267,0.02769688,-0.02343582
1691761071565255,0.07661445,0.13407530,9.73482418,0.04261058,0.01810949,-0.02663161
1691761071567281,-0.08619126,0.05746084,10.04607010,0.05326322,0.02663161,-0.01491370
1691761071569240,0.07661445,0.06703765,9.85453415,0.04793690,0.06498113,-0.00426106
1691761071571252,0.01436521,0.04788403,9.69172859,0.03621899,0.08841695,-0.01597897
1691761071573239,-0.27293900,0.00478840,9.94072533,0.02343582,0.13422331,-0.01171791
1691761071575330,-0.17238252,0.01436521,9.57201862,0.01810949,0.15552860,-0.00958738
1691761071577262,-0.36870706,-0.05267244,9.82580376,0.01810949,0.17150757,-0.01065264
1691761071579222,-0.24899697,-0.10534488,9.76834297,0.01384844,0.15765914,-0.00958738
1691761071581318,-0.14844051,-0.06703765,9.50019264,0.02876214,0.15872440,-0.02237055
1691761071583344,-0.30645782,-0.03351882,9.84974575,0.04048005,0.16192019,-0.01597897
1691761071585263,-0.00957681,0.12449849,9.56723022,0.04687164,0.16937704,-0.01491370
1691761071587259,-0.10534488,0.15801731,9.61032581,0.04687164,0.15339808,0.00958738
1691761071589292,-0.05746084,0.17238252,9.74918938,0.05645901,0.12676647,0.00532632
1691761071591271,0.15801731,0.22026655,9.55286503,0.06604639,0.09800433,0.01171791
1691761071593245,0.01436521,0.22026655,9.78749657,0.05965481,0.04687164,0.01065264
1691761071595246,0.11013328,0.14844051,9.71088219,0.04261058,0.01704423,0.01810949
1691761071597248,-0.05267244,0.03830723,9.72524738,0.03941479,-0.00852212,0.00532632
1691761071599276,-0.00957681,0.10534488,9.85453415,0.02450108,-0.02982740,-0.00319579
1691761071601277,0.03351882,0.05267244,9.72524738,0.01491370,-0.03089267,0.00532632
1691761071603253,-0.12928689,0.03351882,9.71567059,0.01278317,-0.00639159,0.00106526
1691761071605237,-0.01915361,0.11971009,9.60553741,0.03515373,0.01065264,0.00426106
1691761071607356,-0.12928689,0.05267244,9.63426781,0.03195793,0.06072007,0.02024002
1691761071609229,-0.12928689,0.25857377,9.50019264,0.04580637,0.12357067,0.00745685
1691761071611420,-0.12449849,0.11492168,9.45709705,0.07243798,0.13954964,0.02130529
1691761071613235,-0.31603462,0.16759412,9.51455784,0.07776430,0.21092236,0.02982740
1691761071615262,-0.22026655,0.13407530,9.26556015,0.07669904,0.20985709,0.02130529
1691761071617294,-0.37349546,-0.03351882,9.52413464,0.06178534,0.20453078,-0.00958738
1691761071619223,-0.31603462,0.11013328,9.44273186,0.07137272,0.15552860,0.01491370
1691761071621237,-0.20590134,-0.05267244,9.34217548,0.05006743,0.13741912,0.00106526
1691761071623266,-0.35434186,-0.17238252,9.63426781,0.04261058,0.10120012,0.00000000
1691761071625346,0.00000000,-0.06224924,9.32302189,0.01810949,0.07669904,-0.01491370
1691761071627263,-0.12928689,-0.20590134,9.53849983,0.00213053,0.05219796,0.00319579
1691761071629299,-0.01436521,0.09097967,9.55286503,-0.00532632,0.05219796,-0.00639159
1691761071631241,0.16759412,0.11013328,9.29907894,0.01597897,0.06711166,0.02876214
1691761071633269,-0.10534488,0.03351882,9.57680702,0.03621899,0.08096009,0.01597897
1691761071635254,0.07182605,0.30166942,9.30386734,0.04687164,0.07137272,0.01065264
1691761071637238,-0.06703765,0.05746084,9.47625065,0.04154531,0.07137272,0.01491370
1691761071639226,-0.19153613,0.07661445,9.64863300,0.04793690,0.05965481,0.01278317
1691761071641303,-0.02394202,0.06703765,9.44273186,0.04048005,0.05006743,0.00639159
1691761071643263,-0.33518824,-0.09097967,9.83059216,0.04154531,0.02876214,0.02024002
1691761071645246,-0.15322891,0.16280572,9.75397778,0.03515373,0.02130529,0.01065264
1691761071647263,-0.21068975,0.00000000,9.73961258,0.04154531,0.01597897,0.01384844
1691761071649248,-0.12928689,0.09576806,9.96945572,0.03408846,0.00852212,0.00639159
1691761071651296,0.05267244,0.17717093,9.84974575,0.03834952,-0.00213053,0.01384844
1691761071653298,-0.12449849,0.14844051,9.97903252,0.03515373,0.01491370,0.00852212
1691761071655257,0.01436521,0.43574470,9.97424412,0.03621899,0.01917476,-0.00106526
1691761071657364,-0.16759412,0.10534488,10.02691650,0.04580637,0.01171791,-0.00745685
1691761071659246,-0.18674773,0.18674773,10.06522369,0.03621899,0.01384844,-0.00639159
1691761071661349,-0.16280572,0.05746084,10.13704967,0.02769688,0.03089267,-0.01384844
1691761071663238,-0.23463176,0.02394202,10.09395409,0.02343582,0.04900216,-0.01384844
1691761071665234,-0.06703765,0.29209262,10.03649330,0.02556635,0.05965481,-0.00745685
1691761071667285,-0.21068975,-0.11492168,10.25675964,0.01597897,0.07030746,-0.00639159
1691761071669226,-0.04309563,0.32082301,10.10831928,0.01491370,0.06285060,-0.00426106
1691761071671239,-0.08619126,0.21068975,10.25197124,0.00532632,0.05965481,0.00852212
1691761071673236,-0.06224924,0.08619126,10.22802925,0.01065264,0.03621899,0.02769688
1691761071675314,0.02394202,0.29688102,10.13704967,0.00426106,0.02130529,0.01384844
1691761071677233,-0.24420857,-0.21068975,10.40041256,0.00639159,0.00745685,0.00213053
1691761071679215,-0.01436521,0.19632454,10.12747288,-0.00958738,0.00958738,0.00000000
1691761071681239,-0.08619126,0.02394202,10.27591324,-0.00958738,0.01065264,0.01810949
1691761071683446,-0.00478840,0.04788403,10.20887566,-0.00639159,0.03195793,0.01491370
1691761071685279,0.09097967,0.40701428,10.00297451,0.00000000,0.06924219,0.00745685
1691761071687233,-0.12928689,-0.02394202,10.22324085,-0.00426106,0.09693906,0.00000000
1691761071689230,0.00957681,0.32082301,9.97424412,-0.00106526,0.09161274,0.00532632
1691761071691252,-0.19153613,0.04309563,10.12268448,0.00000000,0.08735169,0.00213053
1691761071693289,-0.13407530,0.00478840,10.10353088,-0.01917476,0.09161274,-0.00745685
1691761071695240,-0.09097967,0.16759412,9.87368774,-0.02982740,0.09906960,-0.00319579
1691761071697256,-0.23942018,-0.20590134,9.98382092,-0.02024002,0.10865697,0.01278317
1691761071699260,-0.01436521,0.25857377,9.82101536,0.00319579,0.12783173,0.01384844
1691761071701294,-0.20111294,0.05267244,9.95509052,0.03089267,0.13528858,0.01278317
1691761071703236,-0.05746084,0.19632454,9.92157173,0.05539375,0.14168017,0.00532632
1691761071705233,0.01436521,0.32082301,9.81143856,0.05219796,0.14274544,0.01384844
1691761071707330,-0.18195933,-0.00957681,9.93593693,0.04154531,0.12996227,0.01491370
1691761071709239,0.00478840,0.29209262,9.92157173,0.04367584,0.12144014,0.03195793
1691761071711245,-0.17238252,-0.07661445,10.04607010,0.03195793,0.10865697,0.01704423
1691761071713227,-0.03830723,0.02394202,9.88326454,0.01917476,0.08415589,0.02663161
1691761071715257,-0.03830723,0.02394202,9.97903252,0.00532632,0.07456851,0.00106526
1691761071717265,-0.00478840,-0.19153613,10.03649330,0.00852212,0.04367584,0.00639159
1691761071719226,0.24420857,0.24420857,10.00297451,-0.00639159,0.01597897,-0.02024002
1691761071721372,0.05267244,-0.12449849,10.18493366,-0.00319579,-0.01917476,-0.00745685
1691761071723266,0.18195933,0.17717093,10.01733971,0.00000000,-0.04048005,-0.02237055
1691761071725307,0.16280572,0.11013328,10.09395409,0.00106526,-0.05539375,-0.00426106
1691761071727234,0.10534488,-0.19153613,10.19451046,0.00532632,-0.07350325,-0.00745685
1691761071729211,0.05746084,0.14844051,10.17535686,0.00426106,-0.07776430,0.00213053
1691761071731262,0.08140286,0.11492168,10.28549004,0.00532632,-0.06391586,-0.00532632
1691761071733364,0.06224924,0.16280572,10.06043530,0.00426106,-0.05113269,-0.01171791
1691761071735238,-0.03830723,0.06224924,10.28549004,0.00319579,-0.02982740,-0.00213053
1691761071737333,0.03351882,-0.07661445,10.15141487,-0.02024002,0.00000000,-0.01065264
1691761071739245,-0.04788403,0.23942018,10.09874249,-0.02343582,0.01171791,0.00319579
1691761071741339,-0.23463176,-0.00478840,10.24718285,-0.03195793,0.01065264,-0.00852212
1691761071743254,-0.15322891,0.14844051,10.00776291,-0.01810949,0.02982740,-0.00745685
1691761071745301,-0.11971009,0.29688102,10.10353088,-0.01278317,0.03728426,-0.02024002
1691761071747252,-0.22984336,-0.03351882,10.12268448,-0.00532632,0.02982740,-0.02130529
1691761071749256,-0.00957681,0.33518824,9.94551373,-0.00958738,0.01810949,-0.01491370
1691761071751281,-0.28251579,0.05267244,10.15620327,0.00532632,0.01278317,-0.00745685
1691761071753242,-0.23463176,0.01915361,10.09395409,0.02343582,0.01704423,0.00106526
1691761071755239,-0.18674773,0.22026655,9.97903252,0.02237055,0.01597897,0.00852212
1691761071757325,-0.32082301,-0.04788403,10.08916569,0.02556635,0.01597897,0.00426106
1691761071759238,-0.11013328,0.23463176,9.86411095,0.03621899,0.01384844,-0.00532632
1691761071761246,-0.15801731,0.07661445,9.96466732,0.03302320,0.01597897,-0.01810949
1691761071763206,-0.05746084,0.25857377,9.95509052,0.02130529,0.00852212,0.00000000
1691761071765271,-0.25378537,-0.00957681,10.01733971,0.02450108,0.01065264,0.00639159
1691761071767270,-0.18195933,0.04788403,10.00297451,0.02663161,0.00213053,0.00106526
1691761071769232,-0.02873042,0.23942018,10.03649330,0.02663161,-0.01171791,-0.00213053
1691761071771231,-0.24420857,0.00478840,10.08437729,0.02450108,-0.01384844,0.00426106
1691761071773279,0.00000000,0.28730419,10.02212811,0.03408846,-0.00745685,-0.01491370
1691761071775271,-0.06703765,0.12449849,10.10353088,0.02982740,-0.00319579,-0.01810949
1691761071777350,-0.04788403,0.14844051,9.96945572,0.01704423,0.00852212,-0.01384844
1691761071779218,0.03351882,0.28730419,10.03170490,0.00958738,0.02556635,-0.01065264
1691761071781318,-0.11492168,0.02873042,10.14183807,-0.00213053,0.03728426,-0.03408846
1691761071783316,-0.03830723,0.17238252,9.96466732,-0.01917476,0.03515373,-0.02663161
1691761071785339,-0.26336220,0.03830723,10.19451046,-0.01171791,0.02663161,-0.03728426
1691761071787294,-0.28251579,-0.03830723,10.01255131,0.00319579,0.03621899,-0.01384844
1691761071789248,-0.18195933,0.10534488,10.02691650,0.00745685,0.05432849,-0.00852212
1691761071791276,-0.23942018,-0.02394202,10.15620327,0.00426106,0.08415589,0.01384844
1691761071793260,-0.00478840,0.22984336,9.82580376,-0.00106526,0.09800433,0.02024002
1691761071795240,-0.17238252,0.14365210,10.07480049,0.01810949,0.09906960,0.00639159
1691761071797266,-0.10055647,0.13886370,9.95509052,0.02556635,0.06924219,-0.01810949
1691761071799369,-0.02394202,0.25378537,9.94551373,0.02024002,0.03089267,-0.02876214
1691761071801272,-0.15801731,-0.05746084,10.13704967,0.01171791,-0.01491370,-0.02343582
1691761071803244,0.02873042,0.04788403,9.83059216,0.02663161,-0.06178534,-0.02769688
1691761071805241,-0.16759412,0.00957681,10.11310768,0.02876214,-0.11291803,-0.02237055
1691761071807419,0.09576806,-0.01436521,10.07001209,0.02237055,-0.12996227,-0.02024002
1691761071809235,0.20111294,-0.06224924,10.03170490,0.02024002,-0.16937704,-0.02450108
1691761071811233,0.06703765,-0.03830723,10.18014526,0.00319579,-0.19600865,-0.03515373
1691761071813240,0.16759412,-0.05267244,10.04607010,-0.02130529,-0.19920444,-0.04048005
1691761071815263,0.01436521,-0.04788403,10.12747288,-0.02769688,-0.20133498,-0.04367584
1691761071817285,0.04309563,-0.09097967,10.10353088,-0.02663161,-0.21092236,-0.03728426
1691761071819292,0.08619126,-0.07661445,10.03170490,-0.03941479,-0.18748654,-0.02663161
1691761071821246,-0.04788403,0.07661445,10.15620327,-0.04793690,-0.19281286,-0.01384844
1691761071823248,-0.00478840,-0.07661445,10.12268448,-0.06285060,-0.18002969,-0.01171791
1691761071825290,-0.09097967,0.06703765,10.13226128,-0.06498113,-0.15020229,-0.00852212
1691761071827283,-0.18195933,-0.00957681,10.22802925,-0.07030746,-0.14807175,-0.01278317
1691761071829220,-0.04309563,0.00478840,10.12747288,-0.06924219,-0.13315806,-0.00426106
1691761071831250,-0.10534488,0.07182605,10.15141487,-0.06817693,-0.11930962,-0.01597897
1691761071833268,-0.20590134,-0.13407530,10.28549004,-0.05965481,-0.11291803,-0.01597897
1691761071835272,-0.16759412,0.07661445,10.12747288,-0.05645901,-0.11398330,-0.02343582
1691761071837241,-0.29688102,-0.08619126,10.31422138,-0.05645901,-0.12250541,-0.02130529
1691761071839241,-0.08140286,-0.05267244,10.27591324,-0.05326322,-0.15339808,-0.02556635
1691761071841335,-0.00478840,0.04309563,10.17056847,-0.05006743,-0.17044231,-0.02343582
1691761071843437,-0.07182605,-0.04309563,10.30464458,-0.06072007,-0.18109496,-0.02663161
1691761071845241,-0.00957681,0.04788403,10.16578007,-0.07882957,-0.21624868,-0.02343582
1691761071847237,-0.04788403,-0.03830723,10.20887566,-0.07563377,-0.21411815,-0.01810949
1691761071849275,0.12928689,0.33518824,10.06522369,-0.07882957,-0.20240024,-0.01917476
1691761071851246,-0.07661445,0.06703765,10.08916569,-0.08309063,-0.18855180,-0.01278317
1691761071853250,-0.00957681,0.16280572,10.07480049,-0.06391586,-0.16618125,-0.01278317
1691761071855240,-0.05746084,0.27772740,10.01255131,-0.05645901,-0.14061491,-0.00958738
1691761071857298,-0.18674773,-0.08619126,10.10353088,-0.08096009,-0.11185277,-0.01917476
1691761071859235,-0.04788403,0.21068975,10.11310768,-0.07882957,-0.10333065,-0.01704423
1691761071861266,0.22026655,0.12449849,10.17535686,-0.06498113,-0.08841695,-0.02876214
1691761071863244,0.42616791,0.52672440,10.15620327,-0.05432849,-0.06391586,-0.03728426
1691761071865276,0.37349546,0.41180268,10.18972206,-0.06604639,-0.06285060,-0.03621899
1691761071867322,0.33997664,0.35434186,10.10831928,-0.06178534,-0.07350325,-0.01171791
1691761071869243,0.28730419,0.45968673,10.08437729,-0.06072007,-0.05858954,-0.02130529
1691761071871248,0.13886370,0.08619126,10.08916569,-0.05219796,-0.05432849,-0.03408846
1691761071873260,0.10534488,0.38307226,9.96945572,-0.05539375,-0.05326322,-0.01917476
1691761071875327,-0.17238252,-0.02873042,10.11789608,-0.07669904,-0.07137272,-0.02024002
1691761071877249,-0.01915361,-0.01915361,9.95030212,-0.06924219,-0.07989483,-0.02237055
1691761071879261,0.04309563,0.12928689,10.00776291,-0.05219796,-0.07563377,-0.00852212
1691761071881257,-0.00478840,-0.11971009,10.15620327,-0.03621899,-0.09267800,0.00319579
1691761071883302,0.12449849,0.37828386,9.93593693,-0.05432849,-0.10226539,-0.00852212
1691761071885253,-0.11013328,-0.02394202,10.18972206,-0.05326322,-0.12037488,-0.00319579
1691761071887235,0.04788403,0.05746084,10.06522369,-0.03834952,-0.12996227,0.00319579
1691761071889216,-0.02873042,0.18195933,10.09395409,-0.03515373,-0.14381070,0.00319579
1691761071891261,-0.11013328,-0.16759412,10.22802925,-0.04367584,-0.14381070,0.00852212
1691761071893264,-0.03830723,0.18674773,10.04607010,-0.02769688,-0.15020229,0.01171791
1691761071895347,-0.14365210,-0.11013328,10.18493366,-0.03089267,-0.14487596,0.00319579
1691761071897254,0.11971009,0.14365210,10.03170490,-0.05326322,-0.13528858,-0.00532632
1691761071899263,-0.06224924,0.13886370,10.02212811,-0.06072007,-0.12889700,-0.00213053
1691761071901393,-0.14844051,-0.08619126,10.10353088,-0.06817693,-0.11398330,-0.00852212
1691761071903247,-0.11013328,0.12928689,9.96466732,-0.08202536,-0.08522116,-0.00745685
1691761071905233,-0.25857377,-0.18674773,10.05564690,-0.09480853,-0.07563377,-0.00319579
1691761071907309,-0.15322891,0.03351882,9.92157173,-0.08522116,-0.07243798,0.00000000
1691761071909314,-0.26815060,0.00478840,9.90720654,-0.08096009,-0.06178534,-0.01491370
1691761071911264,-0.17717093,0.06224924,10.00297451,-0.07137272,-0.06391586,-0.02663161
1691761071913283,0.04309563,0.38307226,9.84974575,-0.06072007,-0.06711166,-0.02343582
1691761071915280,-0.16759412,-0.07661445,9.99339771,-0.04687164,-0.06604639,-0.01384844
1691761071917295,-0.05267244,0.33039984,9.90720654,-0.04474111,-0.05113269,-0.00852212
1691761071919223,-0.19153613,0.14365210,9.89762974,-0.04048005,-0.04154531,-0.00639159
1691761071921240,-0.22505496,0.03830723,9.88805294,-0.02769688,-0.02876214,-0.00106526
1691761071923205,-0.13407530,0.14844051,9.83538055,-0.03728426,-0.02130529,0.00106526
1691761071925324,-0.16280572,0.12449849,9.94072533,-0.05539375,-0.01597897,0.00532632
1691761071927431,-0.10534488,0.28730419,9.90720654,-0.05539375,-0.01278317,0.00745685
1691761071929311,-0.22026655,0.04788403,10.00776291,-0.05113269,0.00319579,0.00426106
1691761071931281,-0.07182605,0.15322891,9.95987892,-0.05006743,0.00745685,-0.00106526
1691761071933322,-0.03351882,0.26336220,10.07001209,-0.04580637,0.00213053,-0.00532632
1691761071935239,-0.21068975,-0.10055647,10.14183807,-0.03195793,-0.01171791,-0.00106526
1691761071937253,-0.09576806,0.33039984,9.95509052,-0.03408846,-0.00958738,-0.00426106
1691761071939224,-0.15801731,-0.07182605,10.16578007,-0.02876214,-0.03728426,-0.00532632
1691761071941388,0.05267244,0.06703765,9.98860931,-0.03195793,-0.04900216,0.00639159
1691761071943276,-0.18674773,-0.12449849,10.22324085,-0.04048005,-0.04154531,0.00426106
1691761071945237,-0.06224924,-0.16759412,10.19929886,-0.04687164,-0.03941479,0.01278317
1691761071947264,0.06224924,0.40222588,9.91678333,-0.05645901,-0.04154531,0.01597897
1691761071949254,-0.20590134,-0.08619126,10.11310768,-0.05858954,-0.03408846,0.02876214
1691761071951289,-0.04309563,0.08619126,9.87368774,-0.05326322,-0.01491370,0.02130529
1691761071953247,-0.12928689,0.14365210,9.90241814,-0.02876214,-0.00213053,0.02343582
1691761071955248,-0.26815060,-0.09097967,10.05085850,-0.03834952,0.00852212,0.00639159
1691761071957311,-0.11492168,0.37828386,9.76355457,-0.01704423,0.00745685,0.00106526
1691761071959262,-0.26336220,-0.05746084,10.04607010,-0.00106526,0.01917476,-0.01065264
1691761071961261,-0.03351882,0.20590134,9.91678333,0.00639159,0.02556635,-0.00106526
1691761071963245,-0.11971009,0.18674773,9.91199493,-0.00852212,0.02876214,-0.00532632
1691761071965276,-0.20590134,-0.03351882,10.08916569,-0.00745685,0.02556635,0.01278317
1691761071967428,-0.03830723,0.33039984,9.80186176,-0.00639159,0.02982740,0.01278317
1691761071969256,-0.24420857,-0.16759412,9.98860931,-0.00958738,0.03834952,0.01278317
1691761071971244,-0.03830723,0.07661445,9.89762974,-0.02663161,0.04474111,0.01597897
1691761071973273,-0.16280572,0.00478840,9.85453415,-0.04687164,0.05432849,0.00852212
1691761071975317,-0.17238252,-0.10534488,9.98382092,-0.05752428,0.05113269,-0.00319579
1691761071977268,-0.00957681,0.21547815,9.86889935,-0.06285060,0.04793690,-0.00852212
1691761071979223,-0.16759412,-0.14844051,10.03649330,-0.06604639,0.04261058,-0.00745685
1691761071981250,-0.00957681,0.25857377,9.99818611,-0.05858954,0.04154531,-0.01278317
1691761071983302,-0.10055647,0.11013328,9.97903252,-0.03089267,0.03621899,-0.00958738
1691761071985264,-0.11971009,0.07182605,9.98382092,-0.01278317,0.04261058,0.00639159
1691761071987255,-0.03351882,0.27293900,9.99818611,-0.01704423,0.03834952,0.01810949
1691761071989236,-0.12449849,-0.06703765,10.08916569,-0.00426106,0.01704423,0.02343582
1691761071991294,0.00478840,0.41659111,10.03649330,0.00106526,0.00426106,0.03408846
1691761071993353,-0.07661445,0.11971009,10.16578007,0.00000000,-0.01491370,0.02663161
1691761071995380,0.04788403,0.14365210,10.06043530,0.00213053,-0.02982740,0.02343582
1691761071997286,-0.00478840,0.22505496,10.13226128,-0.01065264,-0.02982740,0.01810949
1691761071999287,-0.13886370,-0.16280572,10.14183807,-0.01171791,-0.01278317,0.00852212
1691761072001255,0.03351882,0.33997664,10.04128170,-0.01065264,-0.01278317,-0.00532632
1691761072003244,-0.09097967,-0.11013328,10.25197124,-0.00958738,-0.01278317,0.00639159
1691761072005236,0.03351882,0.13886370,10.07001209,-0.01810949,-0.00852212,-0.00106526
1691761072007417,-0.22026655,-0.22984336,10.35731697,-0.00745685,0.00319579,-0.00106526
1691761072009231,-0.06224924,0.09097967,10.10353088,-0.00958738,0.01704423,0.00319579
1691761072011281,-0.01436521,0.40222588,10.12747288,-0.01384844,0.01491370,0.00319579
1691761072013245,-0.25378537,-0.17238252,10.36689377,-0.01384844,0.02876214,-0.00319579
1691761072015308,-0.09576806,0.19632454,10.06043530,-0.00426106,0.06072007,0.00639159
1691761072017284,-0.20111294,0.19153613,10.14183807,0.01384844,0.07882957,0.00426106
1691761072019226,-0.16759412,0.02873042,10.16099167,0.02024002,0.08522116,0.01384844
1691761072021247,-0.06703765,0.44053310,9.92157173,0.03728426,0.10013486,0.01065264
1691761072023262,-0.31603462,-0.14844051,10.23281765,0.04474111,0.12144014,0.00213053
1691761072025331,-0.01436521,0.26815060,9.98382092,0.05219796,0.12250541,0.01917476
1691761072027252,-0.18195933,0.17717093,10.06522369,0.03621899,0.11291803,0.01278317
1691761072029237,-0.19632454,-0.03830723,10.16578007,0.03728426,0.10865697,0.02237055
1691761072031280,-0.21068975,0.10534488,10.11789608,0.04154531,0.12570120,0.00319579
1691761072033308,-0.24899697,-0.20111294,10.20887566,0.04261058,0.13848437,0.01704423
1691761072035312,-0.04309563,0.27772740,9.97424412,0.04048005,0.15339808,0.02237055
1691761072037252,-0.25378537,0.07182605,9.95030212,0.03195793,0.19174761,0.03621899
1691761072039263,-0.21068975,-0.02873042,10.00297451,0.02876214,0.24288028,0.01917476
1691761072041338,-0.11013328,0.22505496,9.81622696,0.03834952,0.26098979,0.01917476
1691761072043280,-0.26336220,-0.06224924,9.96466732,0.02982740,0.27270770,-0.00213053
1691761072045244,-0.05267244,0.31603462,9.84974575,0.02982740,0.25992453,0.00213053
1691761072047276,-0.20590134,0.11492168,9.80186176,0.05645901,0.21624868,-0.02237055
1691761072049281,-0.02394202,0.13407530,9.74918938,0.07137272,0.19494340,0.00213053
1691761072051234,0.02394202,0.22026655,9.81622696,0.05752428,0.17683390,-0.01278317
1691761072053249,0.17238252,0.11971009,9.62947941,0.06498113,0.11291803,-0.00106526
1691761072055263,0.11013328,0.33518824,9.70130539,0.04580637,0.09480853,-0.02237055
1691761072057390,0.08140286,-0.09576806,9.78270817,0.03941479,0.05645901,0.00213053
1691761072059259,0.15322891,0.10534488,9.70130539,0.05006743,0.03302320,-0.02663161
1691761072061234,0.01915361,0.17238252,9.84974575,0.04580637,0.01917476,-0.00106526
1691761072063255,0.02873042,-0.11492168,9.79228497,0.02237055,0.00745685,-0.01810949
1691761072065250,0.16759412,0.25378537,9.68694019,0.03621899,-0.01491370,0.00000000
1691761072067298,-0.02394202,-0.09576806,9.89762974,0.03408846,0.00213053,0.00745685
1691761072069327,0.08619126,0.21068975,9.69172859,0.02237055,-0.00958738,0.00000000
1691761072071286,-0.18195933,-0.19632454,10.07480049,0.03195793,-0.01278317,-0.00213053
1691761072073267,0.03351882,-0.06703765,9.97903252,0.02876214,-0.00426106,0.00532632
1691761072075344,-0.11971009,0.15322891,9.92157173,0.02556635,-0.00426106,-0.01065264
1691761072077245,-0.19632454,-0.15322891,10.07958889,0.02343582,0.00852212,-0.00639159
1691761072079231,0.01436521,0.35434186,9.76355457,0.05113269,0.04261058,0.00319579
1691761072081279,-0.24420857,0.15801731,9.86411095,0.06498113,0.07243798,0.01065264
1691761072083445,-0.20590134,-0.07182605,9.88326454,0.07669904,0.12570120,0.01065264
1691761072085273,-0.23463176,0.23942018,9.70609379,0.09161274,0.18748654,0.03302320
1691761072087233,-0.42616791,-0.13886370,9.85932255,0.10013486,0.22050974,0.02130529
1691761072089251,-0.09097967,0.41659111,9.56244183,0.09906960,0.23435818,0.00426106
1691761072091374,-0.34476504,0.18674773,9.68694019,0.08309063,0.23116238,-0.00106526
1691761072093278,-0.09576806,0.14844051,9.72045898,0.06817693,0.19281286,0.00000000
1691761072095234,-0.02873042,0.30645782,9.67736340,0.07882957,0.16298546,-0.01704423
1691761072097257,-0.11971009,-0.11971009,9.89762974,0.06178534,0.08202536,-0.02024002
1691761072099276,0.11492168,0.24899697,9.73961258,0.04793690,0.05539375,-0.02130529
1691761072101280,0.10534488,0.12449849,9.75876617,0.05645901,0.03408846,-0.01597897
1691761072103295,0.11971009,-0.07661445,9.76834297,0.09480853,0.04048005,-0.01917476
1691761072105242,0.14365210,0.36870706,9.65342140,0.10013486,0.06072007,-0.00106526
1691761072107294,-0.00957681,-0.03351882,9.63905621,0.06072007,0.10865697,-0.01810949
1691761072109264,-0.00957681,0.25857377,9.59596062,0.07243798,0.10226539,0.00319579
1691761072111257,-0.14365210,0.05267244,9.75876617,0.06817693,0.11717909,0.01065264
1691761072113258,-0.10055647,0.05267244,9.68215179,0.06711166,0.10546118,-0.00426106
1691761072115279,0.00957681,0.22984336,9.73003578,0.05539375,0.09906960,0.00532632
1691761072117248,-0.21068975,-0.04788403,9.76834297,0.05113269,0.08628642,-0.00426106
1691761072119238,0.01915361,0.23942018,9.55765343,0.03728426,0.07989483,-0.00319579
1691761072121248,-0.11971009,0.01915361,9.92157173,0.04154531,0.05539375,-0.02237055
1691761072123289,-0.01436521,0.00000000,9.70609379,0.03941479,0.03728426,-0.01917476
1691761072125250,-0.00478840,0.16759412,9.73482418,0.03408846,0.02130529,-0.02024002
1691761072127405,0.04309563,0.01915361,9.74440098,0.04793690,0.00958738,-0.01384844
1691761072129222,0.00957681,0.15322891,9.81622696,0.02876214,0.00319579,0.00106526
1691761072131257,-0.09576806,-0.05746084,10.03170490,0.02663161,-0.00532632,-0.00639159
1691761072133343,-0.01436521,0.03830723,9.76355457,0.02130529,0.01491370,-0.01065264
1691761072135250,0.00478840,0.22505496,9.76834297,0.03089267,0.04687164,-0.00426106
1691761072137305,-0.15322891,-0.05746084,9.94072533,0.05006743,0.08948221,0.01597897
1691761072139236,-0.03830723,0.30645782,9.53371143,0.06391586,0.12570120,-0.00319579
1691761072141386,-0.30645782,0.01915361,9.86411095,0.07137272,0.16831177,0.00000000
1691761072143256,-0.27772740,0.03830723,9.81622696,0.08096009,0.15765914,-0.00106526
1691761072145206,-0.23463176,0.29688102,9.72524738,0.09374327,0.15765914,0.00000000
1691761072147250,-0.15801731,-0.01915361,9.81622696,0.07030746,0.12144014,-0.01704423
1691761072149283,0.03830723,0.24420857,9.67257500,0.06604639,0.10972223,0.00426106
1691761072151254,-0.07182605,0.00957681,9.87368774,0.06285060,0.06391586,0.01491370
1691761072153276,0.06703765,0.00000000,9.87368774,0.04687164,0.04048005,0.01384844
1691761072155254,0.12928689,0.18674773,9.79228497,0.02237055,0.00745685,-0.00745685
1691761072157290,-0.01436521,-0.08619126,9.96466732,0.03195793,-0.01384844,0.01065264
1691761072159261,0.07182605,0.12449849,9.81622696,0.02343582,-0.02130529,0.01597897
1691761072161271,-0.06703765,0.03351882,9.92157173,0.01491370,-0.03515373,0.00532632
1691761072163226,0.07661445,0.03351882,9.91199493,0.01171791,-0.03834952,0.00106526
1691761072165261,0.03351882,0.03351882,9.91678333,0.01491370,-0.02237055,0.00958738
1691761072167247,-0.06703765,0.02873042,9.90720654,0.01491370,-0.00426106,-0.00426106
1691761072169264,0.00478840,0.14844051,9.86889935,0.01065264,0.00000000,0.00426106
1691761072171275,-0.17717093,0.12449849,9.91678333,0.00532632,0.01704423,0.01065264
1691761072173284,-0.10534488,0.09576806,9.87368774,0.00106526,0.02343582,-0.00213053
1691761072175267,-0.17238252,0.03351882,10.05564690,0.01704423,0.03728426,-0.00852212
1691761072177368,-0.18195933,0.11971009,9.93114853,0.01065264,0.02876214,-0.01384844
1691761072179228,-0.10534488,0.11971009,10.01255131,0.00532632,0.01917476,-0.02450108
1691761072181367,-0.13407530,0.12928689,10.08437729,0.00319579,0.01065264,-0.02663161
1691761072183374,-0.06703765,0.14365210,10.04607010,0.02450108,-0.00958738,-0.01597897
1691761072185445,-0.10534488,0.05746084,10.17056847,0.02982740,-0.02876214,-0.01384844
1691761072187261,0.05267244,0.15322891,9.99818611,0.03302320,-0.05645901,-0.00213053
1691761072189314,0.04309563,0.08619126,10.07001209,0.03302320,-0.05858954,-0.00639159
1691761072191362,-0.00957681,0.16759412,10.05564690,0.04154531,-0.05432849,-0.01278317
1691761072193344,0.03830723,0.13407530,10.04128170,0.02769688,-0.06285060,-0.00213053
1691761072195293,-0.06224924,0.08619126,10.28070164,0.01384844,-0.06711166,0.00639159
1691761072197249,-0.01436521,0.10534488,10.15141487,0.00852212,-0.05645901,-0.00106526
1691761072199286,-0.01915361,-0.04788403,10.16578007,0.02130529,-0.04687164,-0.00213053
1691761072201265,-0.09576806,0.03830723,10.24239445,0.01597897,-0.05539375,0.00319579
1691761072203302,-0.15322891,0.04788403,10.05564690,0.01810949,-0.05645901,-0.00106526
1691761072205255,-0.17717093,0.07182605,10.23760605,0.01491370,-0.05645901,-0.00532632
1691761072207309,-0.04788403,0.09576806,10.24239445,0.01278317,-0.05645901,-0.01065264
1691761072209237,-0.02394202,0.05267244,10.14183807,-0.00106526,-0.06924219,-0.00213053
1691761072211261,-0.07182605,0.20111294,10.13704967,0.00532632,-0.07882957,-0.00852212
1691761072213246,-0.10534488,0.05267244,10.06522369,0.02237055,-0.07350325,-0.00532632
1691761072215261,-0.10055647,0.19632454,10.08916569,0.03621899,-0.06285060,-0.01704423
1691761072217277,-0.11492168,0.03351882,10.09874249,0.04261058,-0.07030746,-0.01065264
1691761072219246,-0.11013328,-0.00478840,9.98860931,0.05219796,-0.07989483,-0.01278317
1691761072221248,-0.12928689,0.22505496,10.03170490,0.05219796,-0.06391586,-0.01384844
1691761072223254,-0.11492168,-0.00478840,10.09874249,0.04687164,-0.04367584,-0.01065264
1691761072225202,-0.06224924,0.21547815,9.92157173,0.03621899,-0.02876214,-0.00639159
1691761072227314,-0.20111294,0.00000000,10.04128170,0.02343582,-0.02556635,-0.00426106
1691761072229171,-0.15801731,0.03351882,9.97424412,0.00745685,-0.01917476,-0.00106526
1691761072231272,-0.05746084,0.22505496,9.89762974,0.00639159,-0.00745685,0.00852212
1691761072233339,-0.12449849,-0.09576806,10.09395409,0.00106526,-0.00426106,0.00532632
1691761072235349,-0.09576806,0.28251579,9.88805294,-0.00745685,-0.00426106,0.00000000
1691761072237256,-0.22984336,-0.04309563,9.99339771,-0.01278317,0.00532632,-0.01065264
1691761072239255,-0.18674773,-0.05267244,10.01255131,0.00000000,0.00213053,-0.00426106
1691761072241327,-0.09576806,0.17238252,9.83059216,0.00213053,-0.00319579,-0.01597897
1691761072243321,-0.11013328,-0.17238252,10.09874249,0.00319579,-0.00639159,-0.00639159
1691761072245275,-0.00478840,0.32082301,9.91199493,0.01065264,-0.03089267,0.00852212
1691761072247273,-0.04788403,0.05267244,9.88326454,0.00639159,-0.05113269,0.00532632
1691761072249284,-0.00478840,0.01915361,10.00297451,-0.01491370,-0.05965481,0.00213053
1691761072251263,-0.01436521,0.13407530,9.88805294,-0.02343582,-0.06072007,0.02130529
1691761072253253,-0.14365210,-0.20111294,10.00776291,-0.02876214,-0.05432849,0.01491370
1691761072255245,-0.07182605,0.29688102,9.91678333,-0.01917476,-0.03621899,0.01810949
1691761072257380,-0.10534488,0.05267244,9.86889935,-0.00213053,0.00745685,0.04154531
1691761072259249,-0.03351882,0.12449849,9.95509052,0.00958738,0.03515373,0.03302320
1691761072261461,-0.06703765,0.20111294,9.80665016,0.01704423,0.05752428,0.02769688
1691761072263254,-0.14365210,0.05267244,9.81143856,0.01917476,0.06604639,0.01597897
1691761072265305,-0.12928689,0.33039984,9.80186176,0.03195793,0.05752428,0.02024002
1691761072267307,-0.22984336,0.03830723,9.80186176,0.04687164,0.02450108,0.00000000
1691761072269283,-0.09576806,0.11971009,9.79707336,0.04474111,0.00213053,0.02450108
1691761072271255,-0.07182605,0.08140286,9.83538055,0.02556635,-0.01917476,-0.00852212
1691761072273398,-0.09097967,-0.05267244,9.78749657,0.02343582,-0.05432849,0.01384844
1691761072275331,0.06224924,0.29209262,9.81622696,-0.00852212,-0.07989483,0.00213053
1691761072277272,0.08619126,-0.09576806,9.88326454,-0.01491370,-0.09587380,0.02343582
1691761072279237,0.17717093,0.15322891,9.70130539,-0.02769688,-0.10226539,0.00319579
1691761072281294,0.04309563,0.08619126,9.83538055,-0.03408846,-0.11291803,0.03302320
1691761072283422,-0.02873042,-0.02394202,9.77791977,-0.03728426,-0.10226539,0.01278317
1691761072285321,0.00000000,0.33039984,9.77313137,-0.02876214,-0.09906960,0.02663161
1691761072287263,-0.15322891,-0.17717093,9.95509052,-0.03834952,-0.07243798,0.03621899
1691761072289264,-0.03351882,0.18195933,9.65820980,-0.01810949,-0.02876214,0.03195793
1691761072291305,-0.13886370,0.03351882,9.77313137,-0.00106526,0.00106526,0.04261058
1691761072293465,-0.24420857,0.00000000,9.75876617,0.00639159,0.03941479,0.02876214
1691761072295255,-0.11013328,0.40701428,9.57201862,0.02237055,0.06391586,0.01491370
1691761072297257,-0.27772740,-0.13886370,9.90241814,0.01597897,0.06604639,-0.00639159
1691761072299273,-0.13407530,0.22984336,9.66299820,0.00213053,0.05645901,0.01810949
1691761072301269,-0.22984336,0.03830723,9.73003578,-0.00532632,0.06285060,0.00745685
1691761072303256,-0.33518824,-0.06703765,9.87847614,0.00852212,0.07030746,0.00106526
1691761072305273,-0.11971009,0.36391866,9.60553741,0.01171791,0.07456851,0.00000000
1691761072307317,-0.28251579,-0.24420857,9.95509052,0.01065264,0.07350325,0.01278317
1691761072309233,-0.05267244,0.11492168,9.77791977,0.01597897,0.06711166,0.02450108
1691761072311254,0.00957681,0.12928689,9.76355457,0.01384844,0.04154531,0.01597897
1691761072313252,-0.04788403,0.07182605,9.96466732,0.01491370,0.00958738,0.01278317
1691761072315287,0.13407530,0.42137951,9.75876617,-0.00106526,-0.01171791,0.02130529
1691761072317264,-0.08619126,-0.11492168,10.00776291,-0.00319579,-0.05965481,0.01278317
1691761072319228,0.08140286,0.17717093,9.92157173,-0.02024002,-0.07563377,0.00213053
1691761072321250,0.09576806,0.05746084,9.97424412,-0.02982740,-0.10013486,0.00745685
1691761072323289,0.06703765,-0.07182605,10.09395409,-0.02450108,-0.12037488,0.01704423
1691761072325277,0.10534488,0.29688102,9.93114853,-0.01704423,-0.13209279,-0.00319579
1691761072327266,-0.08140286,-0.02873042,10.07001209,-0.02769688,-0.13528858,0.00319579
1691761072329227,0.11013328,0.19153613,10.04128170,-0.02769688,-0.15552860,0.00426106
1691761072331255,0.03830723,-0.03830723,10.10353088,-0.03834952,-0.15339808,-0.01384844
1691761072333374,-0.05267244,0.05267244,10.12268448,-0.04367584,-0.16511598,-0.01917476
1691761072335258,-0.02873042,0.22026655,10.17535686,-0.03728426,-0.17470337,-0.00745685
1691761072337251,-0.09576806,-0.04788403,10.16578007,-0.03621899,-0.15872440,-0.00958738
1691761072339231,0.01436521,0.23942018,10.15141487,-0.04261058,-0.15446334,-0.00106526
1691761072341305,-0.09097967,0.04788403,10.21366405,-0.04261058,-0.14274544,0.00426106
1691761072343270,-0.11971009,0.22984336,10.07480049,-0.04261058,-0.12144014,0.00000000
1691761072345283,-0.14844051,0.21547815,10.21845245,-0.03728426,-0.11930962,0.00106526
1691761072347283,-0.19153613,0.04309563,10.15141487,-0.04474111,-0.10865697,-0.00213053
1691761072349288,-0.13886370,0.25378537,10.18972206,-0.04474111,-0.09587380,0.00213053
1691761072351287,-0.29209262,-0.07661445,10.37168217,-0.03834952,-0.08415589,0.00213053
1691761072353254,-0.10055647,0.22505496,10.10353088,-0.03195793,-0.08202536,0.00106526
1691761072355254,-0.12928689,0.14365210,10.34295177,-0.04261058,-0.07669904,0.00319579
1691761072357294,-0.12928689,0.00000000,10.25197124,-0.04580637,-0.09267800,0.00532632
1691761072359280,-0.04788403,0.22984336,10.15141487,-0.04793690,-0.10333065,0.00213053
1691761072361256,-0.19153613,-0.06224924,10.40520096,-0.04580637,-0.11185277,-0.00426106
1691761072363253,0.02873042,0.21547815,10.07480049,-0.05432849,-0.11930962,-0.01065264
1691761072365445,-0.12928689,0.06703765,10.29027843,-0.05006743,-0.11930962,-0.00852212
1691761072367280,0.05267244,0.24420857,10.03649330,-0.03195793,-0.13315806,-0.00213053
1691761072369240,0.06703765,0.31603462,10.09395409,-0.02663161,-0.14061491,-0.00852212
1691761072371274,-0.05746084,0.03351882,10.32379818,-0.02237055,-0.13315806,-0.00213053
1691761072373308,0.08140286,0.26815060,10.07001209,-0.01065264,-0.13528858,-0.01065264
1691761072375267,-0.11492168,0.14365210,10.23760605,-0.01065264,-0.13315806,-0.00852212
1691761072377267,-0.09576806,0.07661445,10.23281765,-0.01597897,-0.13209279,-0.00745685
1691761072379229,0.00957681,0.18195933,10.16578007,-0.02130529,-0.12783173,0.00106526
1691761072381289,-0.08619126,-0.02394202,10.34295177,-0.02769688,-0.12783173,-0.00745685
1691761072383268,0.04309563,0.18674773,10.14183807,-0.03195793,-0.13209279,-0.00426106
1691761072385266,-0.12449849,0.14844051,10.23760605,-0.04154531,-0.13102752,-0.00213053
1691761072387258,-0.06224924,0.12928689,10.17056847,-0.03834952,-0.12037488,-0.00532632
1691761072389250,-0.01436521,0.11971009,10.13226128,-0.04154531,-0.11185277,-0.00319579
1691761072391327,-0.18674773,0.05746084,10.16099167,-0.03728426,-0.09906960,0.00426106
1691761072393259,-0.12928689,0.08619126,10.11789608,-0.02663161,-0.08415589,0.00213053
1691761072395255,-0.22505496,0.03351882,10.09395409,-0.01597897,-0.08522116,0.01065264
1691761072397254,-0.12449849,0.04788403,10.07480049,-0.03089267,-0.08735169,0.00106526
1691761072399285,-0.11013328,0.14365210,10.08916569,-0.03408846,-0.10333065,0.00532632
1691761072401288,-0.10534488,0.15322891,10.00776291,-0.04261058,-0.10439591,-0.00319579
1691761072403248,0.01915361,0.12928689,10.08437729,-0.03621899,-0.09906960,0.00213053
1691761072405256,-0.05267244,0.15322891,10.04607010,-0.02556635,-0.10013486,-0.00639159
1691761072407499,-0.05746084,0.10534488,10.00297451,-0.01917476,-0.10652644,0.01065264
1691761072409251,-0.06224924,0.13886370,10.08437729,-0.02556635,-0.11717909,0.00745685
1691761072411343,-0.11013328,0.08140286,10.03649330,-0.02769688,-0.12676647,0.01384844
1691761072413258,-0.19632454,0.02873042,10.21845245,-0.04261058,-0.12676647,0.00745685
1691761072415300,-0.01436521,0.11971009,10.14183807,-0.04687164,-0.12676647,0.01384844
1691761072417323,-0.02394202,0.14844051,9.95987892,-0.04261058,-0.12996227,0.02237055
1691761072419232,-0.18674773,0.11013328,10.15620327,-0.02556635,-0.11504856,0.02982740
1691761072421282,-0.14365210,0.17717093,9.95030212,-0.01171791,-0.09374327,0.02450108
1691761072423317,-0.10055647,-0.00478840,10.04128170,-0.01917476,-0.08096009,0.01278317
1691761072425255,-0.18195933,0.00957681,10.06043530,-0.02024002,-0.06391586,-0.00106526
1691761072427265,-0.14844051,0.07661445,9.90241814,-0.02663161,-0.03941479,-0.01065264
1691761072429230,-0.25378537,0.15322891,10.12268448,-0.02876214,-0.02663161,-0.01704423
1691761072431294,-0.17717093,0.17238252,9.89762974,-0.04048005,-0.01278317,-0.01810949
1691761072433290,-0.11013328,0.09576806,9.89762974,-0.02663161,0.00852212,-0.01171791
1691761072435285,-0.17717093,0.12928689,9.98860931,-0.02130529,0.03621899,-0.00745685
1691761072437252,-0.17238252,0.24899697,9.72524738,-0.01491370,0.07776430,0.01065264
1691761072439237,-0.40222588,0.15322891,9.81143856,-0.01171791,0.11291803,0.02663161
1691761072441291,-0.43095630,0.08140286,9.71567059,0.01597897,0.13741912,0.00532632
1691761072443324,-0.35913026,0.16280572,9.67257500,0.02024002,0.15126754,-0.00319579
1691761072445259,-0.30645782,-0.00478840,9.80665016,0.01597897,0.16085494,0.00213053
1691761072447281,-0.13886370,0.09097967,9.62469101,0.00958738,0.14274544,-0.00106526
1691761072449295,-0.24420857,0.22026655,9.66778660,0.00213053,0.11504856,-0.01065264
1691761072451259,-0.09097967,0.09097967,9.70609379,-0.00319579,0.10972223,-0.00319579
1691761072453267,-0.00478840,0.19153613,9.69651699,0.00213053,0.07776430,-0.00639159
1691761072455257,0.04309563,0.12928689,9.63905621,-0.00106526,0.05113269,0.00000000
1691761072457307,0.04309563,0.12928689,9.61511421,-0.00852212,0.03089267,-0.00639159
1691761072459241,-0.15801731,0.17238252,9.68215179,0.00426106,0.01491370,-0.01065264
1691761072461296,0.02394202,-0.02394202,9.58159542,0.00532632,-0.00958738,-0.00532632
1691761072463253,-0.02394202,-0.07182605,9.68215179,-0.00532632,-0.02876214,-0.02450108
1691761072465273,0.06224924,0.09097967,9.56723022,-0.01917476,-0.05539375,-0.01917476
1691761072467298,0.12928689,0.00957681,9.66778660,-0.01917476,-0.07563377,-0.00426106
1691761072469231,0.01436521,0.19632454,9.75876617,-0.02982740,-0.07030746,0.00426106
1691761072471257,0.16280572,0.23942018,9.54807663,-0.01704423,-0.08735169,0.01278317
1691761072473250,-0.05267244,0.01436521,9.79228497,-0.01384844,-0.08522116,0.02237055
1691761072475331,-0.09576806,0.18674773,9.67736340,0.00532632,-0.06498113,0.02130529
1691761072477324,-0.11013328,-0.02394202,9.70609379,-0.01065264,-0.05752428,0.02556635
1691761072479247,-0.21547815,0.12449849,9.89284134,-0.02343582,-0.03408846,0.02663161
1691761072481342,-0.07182605,0.13407530,9.68215179,-0.01917476,-0.02663161,0.01171791
1691761072483349,-0.19632454,0.03351882,9.90720654,-0.00745685,-0.00639159,-0.00532632
1691761072485264,-0.10055647,0.29209262,9.78270817,-0.01810949,0.01597897,-0.00852212
1691761072487287,-0.12928689,0.14844051,9.74918938,-0.02130529,0.04154531,-0.01810949
1691761072489236,-0.20111294,0.23463176,9.85453415,-0.01491370,0.07350325,-0.00319579
1691761072491489,-0.14844051,0.23942018,9.55286503,0.00426106,0.10865697,-0.00639159
1691761072493307,-0.32561144,0.23463176,9.83059216,0.00639159,0.17470337,-0.00319579
1691761072495300,-0.32082301,0.08619126,9.70609379,0.00745685,0.17789917,-0.00745685
1691761072497280,-0.38786069,0.06703765,9.54807663,0.00532632,0.18748654,0.00319579
1691761072499241,-0.40701428,0.15322891,9.70609379,0.02556635,0.17896442,-0.00426106
1691761072501287,-0.18195933,0.08140286,9.60074902,0.02237055,0.15552860,-0.01278317
1691761072503261,-0.11971009,0.03351882,9.68215179,0.02876214,0.12570120,0.00106526
1691761072505282,-0.00478840,0.13407530,9.72524738,0.01384844,0.10652644,-0.00958738
1691761072507335,0.00000000,0.13407530,9.63426781,0.02024002,0.08309063,0.00000000
1691761072509263,0.00478840,0.21068975,9.67257500,0.01704423,0.06498113,-0.01065264
1691761072511256,-0.04788403,0.03351882,9.69172859,0.00532632,0.06817693,0.00426106
1691761072513277,-0.15801731,-0.01436521,9.62947941,-0.00852212,0.07243798,-0.00106526
1691761072515276,-0.06224924,0.11492168,9.54328823,-0.00639159,0.10013486,-0.00639159
1691761072517323,-0.16759412,0.00957681,9.58638382,0.00426106,0.13848437,0.02024002
1691761072519254,-0.20111294,0.25378537,9.46667385,0.01810949,0.18109496,0.00958738
1691761072521361,-0.17238252,0.02873042,9.49061584,0.03515373,0.19813919,0.00319579
1691761072523301,-0.29209262,0.08140286,9.62947941,0.03728426,0.21305288,0.00532632
1691761072525331,-0.09576806,0.20590134,9.41400146,0.04261058,0.20879182,0.00106526
1691761072527325,-0.19632454,0.00957681,9.59117222,0.05645901,0.20133498,-0.01597897
1691761072529235,-0.19632454,0.34955344,9.51934624,0.05539375,0.19813919,-0.00319579
1691761072531289,-0.04309563,0.12928689,9.36611748,0.04900216,0.20985709,-0.00639159
1691761072533382,-0.22026655,-0.04309563,9.66778660,0.04474111,0.19813919,0.01065264
1691761072535288,-0.06224924,0.18195933,9.39005947,0.03089267,0.19068234,0.00106526
1691761072537275,-0.11492168,-0.11971009,9.54328823,0.02450108,0.17150757,0.00532632
1691761072539272,-0.13407530,0.12928689,9.70130539,0.02343582,0.14700650,-0.01278317
1691761072541331,0.11971009,0.12449849,9.51934624,0.01491370,0.12570120,0.00000000
1691761072543310,-0.08619126,0.03830723,9.83538055,0.00958738,0.09161274,-0.01384844
1691761072545255,0.11971009,0.29688102,9.68215179,-0.00106526,0.08309063,-0.01597897
1691761072547282,0.08619126,-0.08619126,9.72045898,0.00106526,0.06285060,-0.00426106
1691761072549267,-0.08140286,0.08619126,9.86889935,-0.01278317,0.05858954,0.00319579
1691761072551282,-0.02873042,0.07661445,9.67736340,-0.01171791,0.05326322,0.00319579
1691761072553261,-0.16280572,-0.06703765,9.87847614,-0.00213053,0.06285060,0.00639159
1691761072555262,-0.04309563,0.29209262,9.76355457,0.00426106,0.05858954,0.00532632
1691761072557308,-0.05267244,0.05267244,9.76834297,-0.00426106,0.06711166,0.00213053
1691761072559259,-0.03351882,0.26815060,9.90241814,0.01597897,0.07989483,0.00213053
1691761072561265,-0.00957681,0.25378537,9.78270817,0.02876214,0.10120012,0.00426106
1691761072563284,-0.14844051,0.17238252,9.84974575,0.03302320,0.13315806,0.00958738
1691761072565293,-0.09576806,0.32082301,9.79707336,0.04793690,0.15659387,0.02130529
1691761072567315,-0.29209262,0.01915361,9.77313137,0.04687164,0.18429075,0.01597897
1691761072569245,-0.20590134,0.16280572,9.81622696,0.05113269,0.18535601,0.00958738
1691761072571271,-0.19632454,0.03830723,9.86411095,0.05965481,0.16618125,-0.00532632
1691761072573286,-0.22026655,0.10055647,9.81143856,0.07137272,0.14274544,0.00639159
1691761072575320,-0.01436521,0.30645782,9.79228497,0.04687164,0.13954964,-0.00106526
1691761072577305,-0.02394202,0.00000000,9.92157173,0.04261058,0.10652644,-0.00426106
1691761072579239,0.13407530,0.18674773,9.77791977,0.02130529,0.06817693,0.01597897
1691761072581277,-0.07182605,-0.04309563,9.96466732,0.00106526,0.05965481,-0.01491370
1691761072583289,-0.05746084,-0.03351882,9.84974575,-0.00106526,0.05219796,-0.02130529
1691761072585281,0.07661445,0.15322891,9.80186176,0.00639159,0.04154531,0.00532632
1691761072587265,-0.12928689,-0.20111294,9.96466732,-0.00213053,0.05326322,0.02237055
1691761072589247,0.09576806,0.29209262,9.72524738,0.00000000,0.07989483,-0.00958738
1691761072591300,-0.02873042,0.06703765,9.93114853,-0.00213053,0.11611383,0.02450108
1691761072593296,-0.08140286,0.14844051,9.80186176,0.01384844,0.14807175,0.01171791
1691761072595337,-0.01915361,0.27293900,9.72045898,0.04048005,0.15552860,-0.01278317
1691761072597471,-0.27772740,-0.13407530,10.04607010,0.03515373,0.15020229,-0.01491370
1691761072599293,-0.09097967,0.27293900,9.74918938,0.00213053,0.13422331,-0.00532632
1691761072601365,-0.22026655,-0.10055647,9.93114853,0.00852212,0.10120012,-0.00958738
1691761072603313,-0.11013328,0.03351882,9.92636013,0.03515373,0.07030746,0.00000000
1691761072605265,0.10055647,0.32561144,9.84974575,0.02876214,0.03089267,-0.00319579
1691761072607327,0.00957681,-0.09576806,10.13226128,0.02769688,-0.00319579,0.00532632
1691761072609280,0.27293900,0.31603462,9.83538055,0.01491370,-0.01278317,-0.02556635
1691761072611265,0.03830723,-0.09576806,10.03170490,0.00639159,-0.04048005,-0.00426106
1691761072613263,0.02873042,0.00478840,10.04607010,-0.01171791,-0.06498113,-0.01597897
1691761072615281,0.04309563,0.13886370,9.96466732,-0.01065264,-0.06072007,-0.00639159
1691761072617313,-0.06224924,-0.22026655,10.07001209,-0.00852212,-0.04900216,-0.01810949
1691761072619237,0.13886370,0.19632454,9.87847614,-0.00958738,-0.05432849,-0.00532632
1691761072621268,0.00000000,0.20590134,9.91199493,-0.02343582,-0.04048005,0.00532632
1691761072623273,0.01436521,0.18674773,10.06522369,-0.01065264,-0.03408846,0.00000000
1691761072625331,-0.01915361,0.24420857,10.02691650,-0.01065264,-0.02663161,-0.00319579
1691761072627337,-0.13407530,-0.02394202,10.07958889,-0.03302320,-0.02982740,-0.00852212
1691761072629238,-0.09097967,0.11971009,10.06043530,-0.03408846,-0.04261058,-0.01384844
1691761072631258,-0.03830723,0.17238252,10.11310768,-0.01597897,-0.05113269,-0.01171791
1691761072633286,-0.03830723,0.14365210,10.12747288,-0.00745685,-0.05858954,-0.00745685
1691761072635278,0.00478840,0.20111294,10.18493366,-0.00106526,-0.07669904,0.00639159
1691761072637265,-0.17717093,-0.03351882,10.18493366,0.00639159,-0.07563377,0.00745685
1691761072639330,-0.07182605,0.08140286,10.13226128,0.00745685,-0.06285060,0.00000000
1691761072641391,-0.09097967,0.04788403,10.18493366,-0.00852212,-0.04474111,-0.00958738
1691761072643287,-0.06224924,0.13886370,10.05564690,-0.01278317,-0.04261058,0.00745685
1691761072645262,0.02394202,0.19632454,10.12268448,-0.01171791,-0.03195793,-0.00319579
1691761072647273,-0.11492168,0.07182605,10.12747288,-0.00639159,-0.00426106,-0.01917476
1691761072649292,-0.01915361,0.22984336,9.98860931,-0.01065264,0.00745685,-0.01597897
1691761072651295,-0.22505496,-0.02394202,10.21845245,-0.01810949,-0.00639159,0.00852212
1691761072653267,-0.20590134,-0.02394202,9.95987892,-0.01917476,0.00000000,-0.00106526
1691761072655291,-0.15322891,0.08140286,10.07958889,-0.00958738,0.00958738,0.00000000
1691761072657346,-0.15322891,0.03351882,10.20408726,0.00213053,0.01065264,0.01171791
1691761072659255,0.11971009,0.27293900,9.93114853,-0.00106526,0.00958738,0.00213053
1691761072661276,-0.12928689,0.12449849,10.20887566,0.00000000,0.01171791,-0.00426106
1691761072663257,-0.06703765,0.20590134,10.01733971,0.00745685,0.00319579,-0.00532632
1691761072665333,-0.05746084,0.12449849,10.10353088,0.00639159,-0.00213053,-0.00213053
1691761072667306,-0.21068975,-0.11013328,10.28070164,-0.00532632,-0.00958738,-0.02024002
1691761072669246,0.00000000,0.13407530,9.95030212,-0.00958738,-0.01171791,-0.02024002
1691761072671262,-0.12449849,0.01915361,10.22802925,-0.01597897,-0.01171791,-0.02450108
1691761072673278,0.03830723,0.11492168,10.09395409,-0.01810949,-0.02237055,-0.00745685
1691761072675340,0.11492168,0.11492168,10.12268448,-0.02024002,-0.03408846,-0.00852212
1691761072677261,-0.02394202,0.03830723,10.29027843,-0.01704423,-0.03728426,-0.00213053
1691761072679246,0.07182605,0.19153613,10.06043530,-0.01171791,-0.05432849,-0.01278317
1691761072681269,-0.09097967,0.01915361,10.24718285,-0.02024002,-0.07350325,0.00426106
1691761072683402,-0.05746084,-0.06703765,10.25197124,-0.01597897,-0.08309063,0.00745685
1691761072685277,-0.00957681,0.01436521,10.21366405,-0.01917476,-0.09800433,0.02237055
1691761072687273,-0.01436521,0.03351882,10.33816338,-0.02663161,-0.10759171,0.01810949
1691761072689261,0.13886370,0.07182605,10.25675964,-0.04261058,-0.10439591,0.01917476
1691761072691299,0.02873042,0.11492168,10.30464458,-0.04367584,-0.10652644,0.01597897
1691761072693267,-0.12449849,-0.07661445,10.36210537,-0.04687164,-0.10652644,0.01384844
1691761072695262,-0.12928689,0.00957681,10.30943298,-0.05006743,-0.10226539,0.02024002
1691761072697346,-0.11013328,-0.00957681,10.38125896,-0.04793690,-0.10652644,0.01917476
1691761072699299,-0.01915361,-0.09576806,10.34295177,-0.04687164,-0.10013486,0.01278317
1691761072701276,-0.03351882,0.20111294,10.26633644,-0.04900216,-0.08735169,-0.00213053
1691761072703269,-0.10534488,0.01915361,10.40998936,-0.06178534,-0.08841695,-0.00106526
1691761072705296,-0.04788403,0.13886370,10.29985619,-0.07030746,-0.10013486,0.00426106
1691761072707326,-0.18195933,0.06224924,10.31422138,-0.06072007,-0.10439591,-0.00213053
1691761072709277,-0.19153613,-0.09576806,10.38604736,-0.05326322,-0.09800433,-0.00213053
1691761072711263,-0.04788403,0.20590134,10.25197124,-0.04793690,-0.11185277,0.01597897
1691761072713259,-0.10055647,-0.04309563,10.42435455,-0.03621899,-0.11398330,0.01171791
1691761072715311,0.01436521,0.29688102,10.27112484,-0.02876214,-0.11291803,0.00106526
1691761072717271,-0.09576806,0.22984336,10.29027843,-0.03408846,-0.09800433,0.00745685
1691761072719250,-0.07661445,0.05267244,10.40998936,-0.03302320,-0.09693906,0.00745685
1691761072721315,-0.07182605,0.25378537,10.21366405,-0.03089267,-0.09267800,0.00319579
1691761072723294,-0.20111294,-0.10055647,10.37168217,-0.03408846,-0.09587380,0.00319579
1691761072725314,-0.10534488,0.26336220,10.24718285,-0.03834952,-0.09906960,0.01597897
1691761072727294,-0.21547815,-0.12449849,10.31422138,-0.04474111,-0.10546118,0.02769688
1691761072729248,-0.00478840,0.07661445,10.31900978,-0.04793690,-0.11078750,0.02130529
1691761072731289,0.03351882,0.28251579,10.18972206,-0.06178534,-0.13315806,0.02876214
1691761072733369,-0.10055647,-0.06703765,10.23760605,-0.06711166,-0.15552860,0.02982740
1691761072735290,-0.05267244,0.24899697,10.20408726,-0.05326322,-0.16085494,0.02556635
1691761072737291,0.30166942,0.45968673,10.17535686,-0.04687164,-0.15659387,0.02769688
1691761072739265,0.47884035,0.92416185,10.10831928,-0.05858954,-0.15872440,0.02024002
1691761072741314,0.33518824,0.45489833,10.11310768,-0.04900216,-0.16085494,0.02343582
1691761072743284,0.37349546,0.52193600,10.10831928,-0.04687164,-0.15978967,0.00106526
1691761072745257,0.22505496,0.54587799,10.17056847,-0.06178534,-0.15978967,0.00106526
1691761072747264,0.15801731,0.39264908,10.06043530,-0.05752428,-0.16618125,0.00106526
1691761072749299,0.21068975,0.56981999,10.09395409,-0.05113269,-0.16618125,0.01384844
1691761072751298,0.05746084,0.13407530,10.10831928,-0.05965481,-0.16085494,0.00639159
1691761072753281,0.11971009,0.34955344,9.98382092,-0.06711166,-0.15978967,0.01491370
1691761072755262,-0.16280572,0.13407530,10.19451046,-0.04793690,-0.15659387,0.01917476
1691761072757356,-0.10534488,0.01436521,10.07001209,-0.04048005,-0.15446334,0.02556635
1691761072759310,-0.00957681,0.36391866,10.10353088,-0.05326322,-0.15872440,0.01810949
1691761072761355,-0.15801731,-0.11971009,10.18972206,-0.06178534,-0.16298546,0.01065264
1691761072763358,-0.00957681,0.28251579,9.90720654,-0.05858954,-0.14594123,0.00319579
1691761072765320,-0.25857377,-0.19632454,10.12268448,-0.05113269,-0.12250541,0.01704423
1691761072767345,-0.02394202,0.16759412,9.90241814,-0.04474111,-0.11185277,0.02450108
1691761072769271,-0.10534488,0.38307226,9.79707336,-0.03195793,-0.07882957,0.03302320
1691761072771263,-0.35434186,-0.19632454,9.96945572,-0.01384844,-0.02237055,0.02237055
1691761072773285,-0.19632454,0.37349546,9.59117222,0.00213053,0.01704423,0.02130529
1691761072775315,-0.44053310,0.05267244,9.80186176,-0.00852212,0.03408846,0.01917476
1691761072777305,-0.37349546,0.07182605,9.73482418,-0.01384844,0.02876214,0.00639159
1691761072779268,-0.17238252,0.32561144,9.49540424,0.01491370,0.03621899,0.01065264
1691761072781295,-0.24420857,-0.09576806,9.81622696,0.03089267,0.03728426,0.00852212
1691761072783375,0.00000000,0.46926352,9.50019264,0.02130529,0.04261058,0.02343582
1691761072785307,-0.15801731,0.15801731,9.56244183,0.02663161,0.04900216,0.00745685
1691761072787267,-0.21068975,0.13407530,9.63426781,0.05539375,0.05113269,0.02130529
1691761072789238,-0.06224924,0.33518824,9.39005947,0.05539375,0.03195793,0.00958738
1691761072791379,-0.21547815,-0.21547815,9.65342140,0.03621899,-0.00852212,0.02024002
1691761072793429,-0.06224924,0.18195933,9.49061584,0.01810949,-0.02237055,0.00745685
1691761072795266,0.00000000,-0.15322891,9.56244183,0.01704423,-0.07669904,0.02237055
1691761072797263,0.03830723,0.03351882,9.61032581,0.01065264,-0.11291803,0.01171791
1691761072799295,0.16280572,0.32082301,9.47625065,-0.01597897,-0.11824435,0.00745685
1691761072801270,0.05267244,-0.08619126,9.55286503,-0.02237055,-0.12783173,0.00213053
1691761072803265,0.03351882,0.25378537,9.47625065,-0.01917476,-0.14381070,-0.00532632
1691761072805261,0.01436521,0.06703765,9.47146225,-0.01065264,-0.14061491,0.01491370
1691761072807299,-0.09097967,0.06224924,9.49061584,0.00213053,-0.10972223,0.00000000
1691761072809256,-0.07661445,0.29209262,9.44273186,0.03941479,-0.07243798,0.02982740
1691761072811266,-0.13407530,0.27772740,9.34217548,0.03195793,0.00106526,0.01278317
1691761072813269,-0.09097967,0.28251579,9.37090588,0.06924219,0.03089267,0.01491370
1691761072815308,-0.36391866,0.00000000,9.44752026,0.06924219,0.07350325,0.01810949
1691761072817294,-0.26336220,0.22026655,9.31823349,0.06391586,0.09693906,0.02024002
1691761072819296,-0.43095630,-0.01915361,9.47625065,0.06498113,0.08948221,0.01704423
1691761072821343,-0.44053310,0.11013328,9.36132908,0.08096009,0.09480853,0.00426106
1691761072823288,-0.16759412,0.23463176,9.27992535,0.07456851,0.11930962,-0.00426106
1691761072825338,-0.34955344,-0.07661445,9.54328823,0.05113269,0.12783173,-0.01704423
1691761072827274,-0.06703765,0.19632454,9.19852257,0.06391586,0.13635385,-0.00639159
1691761072829181,-0.16280572,-0.00478840,9.48103905,0.05752428,0.18002969,-0.00958738
1691761072831280,-0.23942018,0.15322891,9.55286503,0.07776430,0.19494340,-0.01065264
1691761072833308,-0.00478840,0.31603462,9.24161816,0.07563377,0.18961707,-0.00426106
1691761072835336,-0.32082301,-0.12449849,9.68215179,0.06498113,0.18642128,-0.01171791
1691761072837267,0.01915361,0.17238252,9.36132908,0.04474111,0.15233281,-0.01278317
1691761072839255,-0.01915361,0.00957681,9.44752026,0.03195793,0.10333065,-0.00319579
1691761072841306,-0.20111294,-0.07182605,9.62947941,0.01278317,0.03941479,-0.00426106
1691761072843302,0.20590134,0.19153613,9.30865574,-0.00213053,0.00639159,-0.01384844
1691761072845264,0.25378537,0.13886370,9.44752026,0.00745685,-0.04048005,-0.01384844
1691761072847343,0.12928689,-0.03830723,9.62947941,0.01065264,-0.07882957,0.01384844
1691761072849353,0.21547815,0.23463176,9.44752026,0.02556635,-0.09693906,-0.00745685
1691761072851296,0.16759412,0.00478840,9.62469101,0.03302320,-0.09693906,-0.00106526
1691761072853273,0.09576806,0.23463176,9.50976944,0.02556635,-0.10333065,-0.00745685
1691761072855262,0.02873042,0.18195933,9.51934624,0.03089267,-0.11717909,-0.01171791
1691761072857353,-0.02394202,0.00478840,9.67736340,0.01278317,-0.09374327,-0.01917476
1691761072859273,-0.09576806,0.12449849,9.55765343,0.02024002,-0.08948221,-0.01171791
1691761072861420,-0.12928689,0.12928689,9.68694019,0.01171791,-0.06604639,0.00213053
1691761072863272,0.01436521,0.13407530,9.67736340,0.01065264,-0.07669904,-0.01384844
1691761072865355,-0.10055647,0.19632454,9.71088219,0.00745685,-0.05752428,-0.00319579
1691761072867286,-0.05267244,0.20590134,9.67257500,0.02343582,-0.03834952,-0.00319579
1691761072869242,-0.10055647,0.11971009,9.71088219,0.02343582,-0.04474111,-0.00213053
1691761072871269,-0.11492168,0.05746084,9.84495735,0.02024002,-0.03408846,-0.00213053
1691761072873292,-0.17717093,0.10534488,9.78749657,0.02663161,-0.01597897,0.00426106
1691761072875459,-0.13886370,0.10055647,9.84974575,0.03728426,0.00958738,0.00958738
1691761072877327,-0.18674773,0.13407530,9.73003578,0.02450108,0.01065264,0.00639159
1691761072879355,-0.04309563,0.20111294,9.84974575,0.02769688,0.02556635,0.01810949
1691761072881334,-0.20111294,0.03351882,9.78749657,0.04367584,0.09374327,0.01384844
1691761072883447,0.01436521,0.27293900,9.76355457,0.05006743,0.11611383,0.02130529
1691761072885275,-0.36391866,0.06703765,9.92636013,0.04687164,0.15659387,0.03195793
1691761072887351,-0.37828386,0.01436521,9.72045898,0.05326322,0.19174761,0.01278317
1691761072889264,-0.16280572,0.09576806,9.62469101,0.07456851,0.20240024,-0.01278317
1691761072891302,-0.48841715,-0.04788403,9.87847614,0.07456851,0.18961707,-0.00745685
1691761072893316,-0.06224924,0.25378537,9.48103905,0.06498113,0.15765914,0.01597897
1691761072895302,-0.19632454,0.04309563,9.83059216,0.05965481,0.14061491,-0.01384844
1691761072897332,-0.09576806,0.03830723,9.69651699,0.05432849,0.12783173,-0.00213053
1691761072899284,0.10055647,0.26336220,9.48582745,0.03195793,0.10226539,0.00213053
1691761072901394,-0.30645782,-0.06703765,9.91199493,0.01917476,0.09161274,0.01171791
1691761072903319,0.12449849,0.24420857,9.42357826,0.02982740,0.10226539,-0.01065264
1691761072905331,-0.07182605,-0.01915361,9.64863300,0.03941479,0.12676647,0.02556635
1691761072907338,-0.10055647,-0.06703765,9.65342140,0.04261058,0.14274544,-0.00745685
1691761072909286,0.05746084,0.23942018,9.43794346,0.05752428,0.13528858,0.01065264
1691761072911309,-0.29688102,-0.06703765,9.86411095,0.05432849,0.14807175,0.00000000
1691761072913265,0.10055647,0.25857377,9.55286503,0.05113269,0.11504856,-0.00426106
1691761072915387,-0.00957681,0.06224924,9.73961258,0.04367584,0.09374327,0.00426106
1691761072917348,-0.00957681,-0.07182605,9.83059216,0.02982740,0.07563377,0.00106526
1691761072919264,0.05746084,0.24899697,9.64863300,0.02450108,0.06604639,-0.00639159
1691761072921304,-0.17238252,-0.10055647,9.93114853,0.03834952,0.02982740,0.00745685
1691761072923296,0.05267244,0.15322891,9.70609379,0.04261058,0.05539375,0.00000000
1691761072925298,-0.11492168,0.03351882,9.74440098,0.03941479,0.06924219,0.01065264
1691761072927298,0.01915361,0.15801731,9.68215179,0.04261058,0.07882957,-0.00532632
1691761072929242,-0.07661445,0.17238252,9.70609379,0.04048005,0.08415589,0.01384844
1691761072931306,-0.22026655,0.00478840,9.80186176,0.02130529,0.08309063,-0.01278317
1691761072933329,0.03351882,0.16759412,9.70130539,0.03195793,0.07030746,-0.01384844
1691761072935261,-0.16280572,0.13407530,9.83059216,0.04261058,0.08841695,-0.00426106
1691761072937266,0.06224924,0.16759412,9.67736340,0.04154531,0.12357067,0.00000000
1691761072939285,-0.11492168,0.21547815,9.79228497,0.03195793,0.12996227,0.00106526
1691761072941489,-0.26815060,0.01915361,9.75397778,0.04154531,0.13102752,0.00852212
1691761072943320,-0.12928689,0.19632454,9.88326454,0.04793690,0.12889700,0.00532632
1691761072945311,-0.17717093,0.08140286,9.94551373,0.04580637,0.11824435,-0.00426106
1691761072947311,0.09097967,0.16280572,9.64863300,0.03408846,0.08628642,0.00000000
1691761072949337,0.03351882,0.14844051,9.83059216,0.02556635,0.06817693,-0.00745685
1691761072951312,0.01915361,0.10055647,9.90241814,0.02237055,0.04154531,-0.01065264
1691761072953258,0.18195933,0.19153613,9.79707336,0.01171791,0.03834952,0.00213053
1691761072955270,0.06703765,0.04309563,10.01255131,0.00745685,-0.00106526,0.00213053
1691761072957339,0.08140286,0.06703765,9.82101536,0.00000000,-0.00745685,-0.01597897
1691761072959296,0.05267244,-0.02873042,10.08437729,-0.01171791,-0.02024002,-0.03302320
1691761072961305,-0.00478840,-0.01436521,10.18014526,-0.01917476,-0.04048005,-0.02024002
1691761072963249,0.13407530,0.18674773,10.03170490,-0.01810949,-0.05432849,-0.02130529
1691761072965296,-0.12449849,-0.03351882,10.21845245,-0.03302320,-0.04261058,-0.01384844
1691761072967269,0.06224924,0.14365210,10.05564690,-0.02343582,-0.03834952,-0.00319579
1691761072969246,-0.06703765,0.10055647,10.25197124,-0.00745685,0.00000000,0.01278317
1691761072971260,-0.18674773,0.00478840,10.17535686,0.00000000,0.03195793,0.00745685
1691761072973329,-0.18195933,0.12928689,10.09395409,-0.02024002,0.07350325,0.01917476
1691761072975294,-0.26815060,0.00000000,10.14183807,0.00106526,0.09800433,0.01065264
1691761072977280,-0.16759412,0.13886370,9.99339771,0.02237055,0.10546118,-0.00213053
1691761072979265,-0.23463176,0.19632454,10.06043530,0.02343582,0.10546118,-0.00639159
1691761072981410,-0.22026655,0.11013328,10.11789608,0.00319579,0.08735169,-0.01384844
1691761072983373,-0.20590134,0.11013328,9.96466732,0.00106526,0.05219796,0.02024002
1691761072985315,-0.08140286,0.04788403,10.03170490,-0.02237055,0.02556635,0.00958738
1691761072987280,0.05267244,0.04309563,10.08916569,-0.05539375,0.00639159,0.01597897
1691761072989246,-0.08140286,0.09097967,10.04128170,-0.04793690,-0.01810949,-0.00106526
1691761072991315,-0.01436521,-0.00957681,10.04607010,-0.04261058,-0.03195793,0.00319579
1691761072993263,0.03830723,0.02394202,10.09874249,-0.05113269,-0.02982740,-0.00319579
1691761072995273,0.08619126,0.25378537,9.96466732,-0.05006743,-0.00213053,-0.00745685
1691761072997284,-0.02873042,0.10534488,10.02691650,-0.04580637,0.02663161,0.00000000
1691761072999310,-0.12928689,0.26815060,9.94072533,-0.03089267,0.07669904,-0.02024002
1691761073001301,-0.15322891,0.09097967,9.84495735,-0.01810949,0.09800433,-0.02237055
1691761073003214,-0.23463176,-0.03351882,9.99818611,-0.01917476,0.10013486,0.00106526
1691761073005292,-0.14844051,0.11013328,9.80186176,-0.01278317,0.10120012,-0.01384844
1691761073007297,-0.24420857,0.00000000,9.87368774,-0.00532632,0.10546118,-0.02343582
1691761073009276,-0.18674773,0.21547815,9.92636013,-0.00106526,0.10652644,-0.01810949
1691761073011259,-0.05267244,0.12928689,9.76834297,0.00532632,0.10333065,-0.01597897
1691761073013268,-0.11013328,0.01915361,10.00776291,0.02343582,0.09906960,-0.02130529
1691761073015300,-0.07661445,0.28251579,9.88805294,0.02982740,0.09693906,-0.00532632
1691761073017375,-0.01436521,0.03351882,9.87368774,0.02130529,0.06178534,0.00532632
1691761073019248,-0.13886370,0.07661445,9.98860931,0.00106526,0.02343582,0.01171791
1691761073021322,-0.04309563,-0.03351882,9.81622696,-0.01491370,0.00213053,0.00958738
1691761073023309,-0.03830723,0.16280572,10.04607010,-0.03089267,-0.03089267,0.00958738
1691761073025340,0.05746084,0.15801731,9.97424412,-0.03515373,-0.03728426,0.00639159
1691761073027287,-0.03351882,-0.00478840,9.91199493,-0.03302320,-0.03515373,0.00213053
1691761073029242,0.05746084,0.29209262,9.93114853,-0.02663161,-0.02024002,-0.00852212
1691761073031289,-0.03830723,0.19632454,9.78270817,-0.00426106,0.02343582,0.00639159
1691761073033260,-0.13407530,0.11971009,9.83538055,0.00532632,0.05645901,-0.00958738
1691761073035427,-0.23463176,0.11013328,9.86411095,0.03728426,0.07137272,-0.01810949
1691761073037274,-0.27293900,-0.00478840,9.79228497,0.02769688,0.08202536,-0.01917476
1691761073039286,-0.25378537,0.14365210,9.83059216,0.02663161,0.08096009,0.00426106
1691761073041312,-0.22984336,-0.03351882,9.83538055,0.01491370,0.07882957,-0.02237055
1691761073043300,-0.13886370,0.20111294,9.77313137,-0.00213053,0.08415589,0.00319579
1691761073045262,-0.11013328,0.16759412,9.89284134,-0.00852212,0.09054748,-0.01597897
1691761073047271,-0.12928689,0.00957681,9.90241814,-0.00958738,0.09374327,-0.01597897
1691761073049311,-0.03830723,0.28251579,9.77791977,-0.01278317,0.08522116,-0.03195793
1691761073051294,-0.14844051,-0.04309563,9.95987892,-0.01810949,0.07243798,-0.01917476
1691761073053348,-0.07661445,0.17717093,9.84974575,-0.01704423,0.04580637,-0.02024002
1691761073055283,-0.03351882,0.05746084,9.85932255,-0.04367584,0.03089267,-0.01917476
1691761073057446,-0.10055647,-0.05746084,10.01733971,-0.04261058,0.01384844,-0.02663161
1691761073059259,0.10534488,0.37349546,9.84495735,-0.04261058,-0.02237055,-0.02237055
1691761073061274,0.01915361,-0.09576806,10.07480049,-0.04474111,-0.03408846,-0.01704423
1691761073063288,0.07661445,0.19153613,9.99818611,-0.05965481,-0.05113269,-0.02024002
1691761073065333,0.02873042,0.16759412,10.03649330,-0.06711166,-0.08202536,-0.00852212
1691761073067301,-0.06703765,-0.08140286,10.20408726,-0.07563377,-0.09693906,-0.00426106
1691761073069328,-0.00478840,0.21068975,10.02212811,-0.07776430,-0.09800433,-0.01704423
1691761073071288,-0.13407530,-0.29688102,10.15620327,-0.07350325,-0.10759171,-0.00106526
1691761073073273,-0.02394202,0.18674773,10.06522369,-0.06072007,-0.10226539,0.02024002
1691761073075346,-0.01915361,0.14365210,10.03170490,-0.04687164,-0.06924219,0.02343582
1691761073077321,0.00478840,0.12449849,10.09395409,-0.05432849,-0.02769688,0.01491370
1691761073079250,0.00000000,0.42137951,9.93114853,-0.04793690,-0.00319579,0.01278317
1691761073081325,-0.23463176,-0.07182605,10.03170490,-0.03834952,0.03302320,-0.00106526
1691761073083342,-0.20590134,0.28730419,9.95509052,-0.02450108,0.04367584,-0.00106526
1691761073085276,-0.32561144,0.13407530,9.90720654,-0.02450108,0.04048005,-0.00319579
1691761073087385,-0.23463176,0.00000000,9.94072533,-0.02663161,0.02556635,0.00319579
1691761073089245,-0.12449849,0.22026655,9.93593693,-0.02130529,0.00532632,-0.01065264
1691761073091278,-0.11013328,-0.03351882,9.94551373,-0.02024002,-0.02024002,-0.00213053
1691761073093304,0.07661445,0.38307226,9.93593693,-0.07030746,-0.05645901,-0.00106526
1691761073095269,-0.09576806,0.08140286,10.07480049,-0.08415589,-0.08096009,-0.01491370
1691761073097313,0.00957681,0.03830723,9.94551373,-0.08096009,-0.09587380,-0.01917476
1691761073099288,-0.07661445,0.19153613,10.06043530,-0.07563377,-0.09800433,-0.02343582
1691761073101489,-0.08140286,-0.08619126,10.00297451,-0.08522116,-0.09693906,-0.00639159
1691761073103310,-0.07661445,0.26336220,9.99818611,-0.07776430,-0.05858954,0.01171791
1691761073105269,-0.14844051,-0.06224924,10.07001209,-0.07776430,-0.03089267,0.02450108
1691761073107331,0.01915361,0.27772740,9.79707336,-0.05006743,0.00213053,-0.01384844
1691761073109217,-0.11971009,0.28251579,9.98382092,-0.04793690,0.00745685,-0.01065264
1691761073111274,-0.26815060,0.10055647,9.95030212,-0.04154531,0.00958738,-0.00639159
1691761073113257,-0.08140286,0.50278234,9.70609379,-0.01917476,0.01491370,-0.00745685
1691761073115332,-0.33518824,-0.03351882,10.00297451,0.00639159,0.03089267,0.00532632
1691761073117273,-0.09576806,0.27772740,9.64863300,0.00532632,0.03941479,0.01810949
1691761073119277,-0.21068975,0.20111294,9.72045898,0.01704423,0.05006743,0.02237055
1691761073121352,-0.32082301,0.00478840,9.84974575,0.02769688,0.05965481,0.00958738
1691761073123308,-0.01915361,0.47405192,9.54328823,0.01810949,0.06072007,0.01704423
1691761073125340,-0.19632454,-0.08619126,9.90720654,-0.00532632,0.02343582,0.01065264
1691761073127301,0.02873042,0.21547815,9.64384460,0.00213053,0.00426106,0.01597897
1691761073129275,-0.03830723,0.19153613,9.72524738,-0.00319579,-0.01065264,-0.00958738
1691761073131391,-0.09576806,-0.08619126,9.97424412,-0.00319579,-0.04474111,-0.01065264
1691761073133357,0.08140286,0.26336220,9.68215179,-0.03302320,-0.05752428,-0.00639159
1691761073135349,-0.22505496,-0.27772740,9.88326454,-0.03728426,-0.05752428,-0.00745685
1691761073137283,-0.01915361,0.15322891,9.66778660,-0.05006743,-0.02663161,-0.02237055
1691761073139287,-0.05267244,0.11971009,9.74440098,-0.05006743,0.00532632,-0.00106526
1691761073141350,-0.09097967,-0.06224924,9.88326454,-0.05006743,0.01491370,-0.00532632
1691761073143302,0.01915361,0.34476504,9.68694019,-0.04261058,0.00745685,-0.03515373
1691761073145280,-0.21547815,-0.02873042,9.88805294,-0.03834952,0.00745685,-0.02450108
1691761073147292,-0.04309563,0.24420857,9.81143856,-0.02556635,-0.00958738,-0.00639159
1691761073149304,-0.13407530,0.11492168,9.86889935,-0.01704423,-0.04048005,-0.02343582
1691761073151290,-0.11492168,-0.09576806,9.91678333,-0.02024002,-0.06711166,-0.00958738
1691761073153249,-0.05746084,0.19153613,9.87847614,-0.04261058,-0.08415589,0.00852212
1691761073155296,-0.08619126,-0.10534488,9.95509052,-0.02556635,-0.13741912,0.00426106
1691761073157368,0.17717093,0.26815060,9.87368774,-0.04474111,-0.14807175,-0.00852212
1691761073159280,0.11013328,0.13886370,10.01255131,-0.05645901,-0.17470337,0.00319579
1691761073161316,0.17717093,0.11013328,9.90241814,-0.06178534,-0.19281286,-0.00639159
1691761073163275,0.06703765,0.20111294,9.99818611,-0.05113269,-0.20772657,0.01810949
1691761073165313,-0.05267244,-0.05746084,9.99339771,-0.06711166,-0.19813919,-0.00106526
1691761073167374,0.00957681,0.21068975,9.89762974,-0.06285060,-0.19174761,0.01491370
1691761073169247,-0.14844051,-0.01436521,10.06522369,-0.06711166,-0.17363811,0.01810949
1691761073171280,-0.02873042,0.10534488,9.84495735,-0.07243798,-0.16618125,0.00000000
1691761073173295,0.00957681,0.22026655,10.00776291,-0.07030746,-0.15339808,-0.00639159
1691761073175297,-0.06703765,0.07661445,9.94072533,-0.06498113,-0.12144014,-0.01597897
1691761073177303,-0.06224924,0.26336220,9.82580376,-0.04154531,-0.11824435,-0.01704423
1691761073179270,-0.30166942,0.02873042,10.10831928,-0.03195793,-0.11291803,-0.01810949
1691761073181292,-0.15801731,0.17717093,9.91199493,-0.02663161,-0.09800433,-0.01704423
1691761073183311,-0.18195933,0.11492168,10.12747288,-0.01810949,-0.09374327,-0.01810949
1691761073185301,-0.15801731,-0.00957681,10.11789608,-0.01065264,-0.10546118,-0.00106526
1691761073187277,0.00957681,0.29688102,9.94551373,-0.02343582,-0.09693906,0.01597897
1691761073189256,-0.17238252,0.05746084,10.27112484,-0.04474111,-0.10333065,0.01384844
1691761073191344,-0.00957681,0.26815060,10.02691650,-0.04687164,-0.10439591,0.02769688
1691761073193280,-0.12449849,0.12449849,10.16578007,-0.04474111,-0.08841695,0.03089267
1691761073195296,-0.22984336,-0.03351882,10.18014526,-0.03302320,-0.07776430,0.03302320
1691761073197288,-0.08619126,0.25857377,9.97903252,-0.02663161,-0.04154531,0.03728426
1691761073199307,-0.30166942,-0.00957681,10.26633644,-0.02024002,0.00426106,0.02343582
1691761073201283,-0.08619126,0.24420857,10.00776291,-0.01810949,0.01278317,0.00426106
1691761073203320,-0.10534488,0.23463176,10.05564690,-0.02024002,0.01491370,0.00532632
1691761073205278,-0.17238252,0.06703765,10.16099167,-0.02237055,0.01065264,0.00745685
1691761073207334,-0.08619126,0.34476504,9.91678333,-0.00745685,-0.02237055,0.00745685
1691761073209305,-0.22026655,0.02394202,10.08916569,-0.00106526,-0.04793690,0.01597897
1691761073211275,-0.02394202,0.11013328,9.95987892,-0.01491370,-0.06178534,0.01384844
1691761073213302,-0.11971009,0.06224924,9.96466732,-0.02130529,-0.10333065,0.02130529
1691761073215294,-0.05267244,-0.08140286,10.00776291,-0.03195793,-0.13209279,0.00958738
1691761073217319,0.15801731,0.11971009,9.92636013,-0.04474111,-0.14700650,-0.00106526
1691761073219296,0.11971009,0.04309563,9.99818611,-0.04580637,-0.17470337,0.01384844
1691761073221280,0.16280572,0.12928689,9.97903252,-0.04154531,-0.18216021,0.02663161
1691761073223308,-0.02394202,0.13407530,9.98860931,-0.05432849,-0.16937704,0.01597897
1691761073225451,-0.01436521,0.07182605,9.93593693,-0.04900216,-0.16937704,0.02237055
1691761073227277,-0.02394202,-0.00957681,9.97903252,-0.04793690,-0.15552860,0.02663161
1691761073229245,-0.14844051,0.00957681,9.94551373,-0.05965481,-0.14594123,0.01597897
1691761073231313,-0.08619126,0.06703765,9.95509052,-0.06498113,-0.15552860,0.00958738
1691761073233365,-0.13407530,0.20111294,10.01255131,-0.06072007,-0.12996227,0.01278317
1691761073235278,-0.04788403,0.17717093,9.86411095,-0.04261058,-0.12570120,-0.00532632
1691761073237283,-0.07182605,0.08619126,9.99818611,-0.04261058,-0.13315806,-0.01278317
1691761073239254,-0.18195933,0.15801731,9.92636013,-0.05006743,-0.12463594,0.00532632
1691761073241313,-0.21547815,0.02873042,9.95987892,-0.04367584,-0.10972223,-0.00532632
1691761073243317,-0.26815060,0.05746084,10.03170490,-0.02556635,-0.10652644,0.00958738
1691761073245292,-0.12928689,0.13886370,9.87368774,-0.03515373,-0.09587380,0.01278317
1691761073247273,-0.14844051,0.06224924,10.09395409,-0.03515373,-0.08735169,0.02024002
1691761073249331,-0.14844051,0.20590134,9.90720654,-0.01491370,-0.08415589,0.00319579
1691761073251312,-0.11492168,0.19632454,9.84495735,-0.01384844,-0.06285060,0.00958738
1691761073253335,-0.23942018,0.22984336,10.00297451,-0.00213053,-0.04580637,0.00319579
1691761073255280,-0.19632454,0.21547815,9.72524738,0.00426106,-0.01384844,0.03089267
1691761073257332,-0.32561144,0.10534488,9.86411095,0.01810949,0.02343582,0.02450108
1691761073259270,-0.43574470,0.08619126,9.74440098,0.03834952,0.07989483,0.01917476
1691761073261325,-0.33518824,0.18674773,9.58638382,0.04580637,0.10439591,0.00426106
1691761073263289,-0.44053310,0.14844051,9.84974575,0.06604639,0.13102752,-0.00106526
1691761073265312,-0.24899697,0.25378537,9.61032581,0.06178534,0.12996227,-0.01171791
1691761073267316,-0.24420857,0.28251579,9.64384460,0.05965481,0.10333065,0.00319579
1691761073269340,-0.27293900,0.09097967,9.74918938,0.04367584,0.09906960,0.00319579
1691761073271317,-0.22026655,0.15801731,9.56723022,0.04793690,0.07669904,0.00745685
1691761073273254,-0.17238252,0.14844051,9.66778660,0.03621899,0.07563377,0.00426106
1691761073275358,-0.07661445,0.09097967,9.59117222,0.03834952,0.06711166,0.02982740
1691761073277321,-0.22984336,0.14844051,9.57201862,0.04687164,0.07669904,0.02237055
1691761073279283,-0.24899697,-0.01436521,9.53849983,0.05113269,0.11078750,0.01384844
1691761073281289,-0.14365210,0.20111294,9.43794346,0.06924219,0.12676647,0.00958738
1691761073283461,-0.25378537,0.21068975,9.50498104,0.08948221,0.16618125,0.01384844
1691761073285296,-0.16759412,0.18674773,9.48582745,0.09480853,0.20026971,0.00106526
1691761073287418,-0.24420857,0.30166942,9.57680702,0.09054748,0.20879182,0.00532632
1691761073289263,-0.20111294,0.09097967,9.32781029,0.08948221,0.19707392,0.00532632
1691761073291402,-0.11013328,0.18195933,9.48582745,0.08735169,0.18855180,0.00958738
1691761073293326,-0.32561144,0.16759412,9.62947941,0.09374327,0.15020229,0.02982740
1691761073295417,-0.02394202,0.07661445,9.37569427,0.08628642,0.12357067,0.02876214
1691761073297345,-0.27293900,0.09576806,9.74440098,0.07137272,0.08735169,0.00532632
1691761073299310,-0.08619126,0.03351882,9.49540424,0.05326322,0.07669904,0.01597897
1691761073301430,0.07661445,0.15322891,9.47146225,0.06391586,0.07350325,0.00319579
1691761073303327,-0.10055647,0.11492168,9.54328823,0.07243798,0.09054748,-0.00426106
1691761073305243,0.25378537,0.29209262,9.36611748,0.07776430,0.09054748,-0.01065264
1691761073307328,-0.08619126,0.18674773,9.71567059,0.07882957,0.13102752,0.01704423
1691761073309246,-0.10534488,0.16759412,9.56723022,0.06711166,0.13102752,0.00000000
1691761073311325,-0.11971009,0.10055647,9.50498104,0.05219796,0.13848437,-0.01491370
1691761073313311,-0.45489833,-0.01915361,9.74440098,0.04154531,0.15552860,-0.02237055
1691761073315409,-0.13407530,0.16280572,9.15542698,0.04900216,0.15872440,-0.02982740
1691761073317316,-0.26815060,0.09576806,9.24161816,0.05752428,0.16724652,-0.02876214
1691761073319301,-0.27293900,0.07182605,8.92558384,0.06604639,0.20772657,-0.02982740
1691761073321308,-0.17238252,0.31124622,8.38928318,0.07563377,0.22796659,-0.02237055
1691761073323394,-0.29688102,0.14365210,8.55208874,0.10439591,0.29081720,-0.01278317
1691761073325352,-0.16280572,0.19632454,7.92959595,0.11398330,0.28336033,-0.00532632
1691761073327374,-0.25857377,0.29209262,7.70454121,0.12463594,0.29081720,0.00532632
1691761073329251,-0.23942018,0.01436521,7.74284840,0.12463594,0.30360037,-0.00106526
1691761073331267,-0.11013328,0.21068975,7.30231524,0.11717909,0.25992453,0.00319579
1691761073333401,-0.28730419,0.17238252,7.27358484,0.11398330,0.22690132,0.00000000
1691761073335230,-0.08140286,0.03351882,7.14429808,0.10865697,0.16298546,-0.00106526
1691761073337295,-0.08619126,0.17717093,6.95755005,0.10439591,0.11930962,-0.00532632
1691761073339287,-0.10055647,-0.04788403,6.92881966,0.10120012,0.12037488,-0.01171791
1691761073341386,0.20590134,0.04309563,6.78995609,0.07669904,0.03621899,-0.00426106
1691761073343337,0.08619126,0.13407530,6.82347488,0.07669904,-0.01171791,-0.01065264
1691761073345322,0.08619126,-0.09097967,6.65109253,0.08628642,-0.03302320,-0.00426106
1691761073347304,0.17238252,0.09576806,6.66545773,0.09374327,-0.05219796,-0.02769688
1691761073349350,0.15322891,0.16280572,6.68939972,0.09800433,-0.05326322,-0.01704423
1691761073351331,0.11492168,-0.01436521,6.43561411,0.08202536,-0.09267800,-0.02556635
1691761073353324,-0.04309563,0.03351882,6.63193893,0.10120012,-0.06391586,-0.03408846
1691761073355375,0.06224924,0.11013328,6.60320807,0.11611383,-0.04900216,-0.01810949
1691761073357372,-0.03351882,0.07661445,6.41167212,0.10546118,-0.06711166,-0.02450108
1691761073359346,-0.21547815,0.00478840,6.55532408,0.10546118,-0.02663161,-0.02450108
1691761073361342,-0.17717093,0.10534488,6.50265169,0.10759171,-0.00532632,-0.02130529
1691761073363254,-0.23942018,0.18674773,6.46434450,0.11504856,0.00319579,-0.02343582
1691761073365327,-0.34955344,0.17238252,6.59363127,0.08628642,0.00106526,-0.00213053
1691761073367343,-0.33039984,0.14365210,6.52659369,0.09267800,0.02663161,0.00532632
1691761073369258,-0.24420857,0.11971009,6.48349810,0.09267800,0.04900216,-0.00958738
1691761073371271,-0.26336220,0.16280572,6.65588093,0.06924219,0.02556635,0.02343582
1691761073373335,-0.25857377,0.08619126,6.70376492,0.06711166,0.02876214,0.00745685
1691761073375337,-0.18195933,0.11971009,6.64630413,0.07137272,0.03089267,0.01171791
1691761073377356,-0.17238252,0.22505496,6.71334171,0.07350325,0.05965481,0.01597897
1691761073379286,-0.15801731,0.14844051,6.77080250,0.06072007,0.05432849,0.01384844
1691761073381365,-0.12928689,0.13886370,6.81868649,0.05219796,0.03621899,0.01065264
1691761073383355,-0.24899697,0.23463176,6.90487766,0.07350325,0.06604639,0.00000000
1691761073385442,-0.24420857,0.24899697,6.93360806,0.07350325,0.06711166,0.00426106
1691761073387285,-0.14365210,0.19632454,7.01979923,0.07350325,0.05539375,0.01384844
1691761073389320,-0.21068975,0.19632454,7.10120201,0.08628642,0.04261058,0.00532632
1691761073391305,-0.27772740,0.12449849,7.15866327,0.06285060,0.03728426,0.00000000
1691761073393340,-0.16759412,0.07661445,7.28795004,0.03089267,0.04687164,0.01491370
1691761073395396,-0.15801731,0.10055647,7.27837324,0.03834952,0.03408846,0.00426106
1691761073397308,-0.26815060,0.04788403,7.27358484,0.05326322,0.06178534,0.00852212
1691761073399306,-0.20111294,0.11971009,7.43639040,0.06711166,0.10226539,0.00319579
1691761073401310,-0.20590134,0.14844051,7.41723680,0.07456851,0.10972223,0.01491370
1691761073403413,-0.28251579,0.08619126,7.36456442,0.09374327,0.13422331,0.01065264
1691761073405280,-0.31603462,0.13407530,7.50342798,0.08628642,0.16085494,0.00852212
1691761073407429,-0.28730419,0.13407530,7.51300478,0.08841695,0.17150757,0.00958738
1691761073409276,-0.22984336,0.04788403,7.49863958,0.07669904,0.16618125,0.03515373
1691761073411420,-0.24420857,0.02873042,7.63271523,0.07243798,0.15552860,0.02450108
1691761073413277,-0.24899697,0.04788403,7.60877323,0.04474111,0.13422331,0.01384844
1691761073415299,-0.18674773,0.09576806,7.62313843,0.03515373,0.12357067,0.01597897
1691761073417329,-0.15322891,0.04309563,7.84340477,0.02343582,0.09800433,0.00852212
1691761073419305,-0.09097967,-0.03830723,7.80030918,0.02769688,0.07137272,0.00000000
1691761073421370,0.00000000,0.01915361,7.81946278,0.02663161,0.05113269,-0.02237055
1691761073423317,-0.12928689,-0.01915361,8.16422749,0.00639159,0.02876214,0.01278317
1691761073425518,-0.08140286,-0.03351882,8.00142193,-0.00426106,0.01810949,0.00532632
1691761073427339,0.00000000,0.08619126,8.01099873,-0.00319579,-0.01171791,0.00958738
1691761073429270,-0.16759412,0.07661445,8.43237877,-0.00319579,-0.01810949,0.02024002
1691761073431293,0.08140286,0.21547815,8.13070869,-0.01065264,-0.03302320,0.01171791
1691761073433336,0.05746084,0.14844051,8.26478386,-0.00426106,-0.03834952,0.02343582
1691761073435350,-0.09097967,0.02394202,8.53772354,-0.01278317,-0.02769688,0.01704423
1691761073437282,0.17717093,0.32082301,8.23605347,-0.02130529,-0.04261058,-0.00106526
1691761073439260,-0.02394202,0.12449849,8.58560753,-0.03515373,-0.03728426,-0.00532632
1691761073441343,-0.04788403,0.10055647,8.56166553,-0.03302320,-0.03515373,-0.00745685
1691761073443333,0.13407530,0.33997664,8.39885998,-0.04261058,-0.03728426,0.00319579
1691761073445331,-0.13407530,0.02873042,8.85375786,-0.04154531,-0.03302320,0.00745685
1691761073447270,-0.05746084,0.20111294,8.63349152,-0.02876214,-0.03728426,0.02024002
1691761073449303,-0.15322891,0.20590134,8.67179871,-0.03515373,-0.01065264,0.02450108
1691761073451418,-0.25857377,-0.11013328,8.94473743,-0.04261058,-0.00426106,0.02024002
1691761073453345,-0.12928689,0.22026655,8.72447109,-0.02876214,0.00000000,0.02343582
1691761073455277,-0.31603462,0.04309563,8.91121864,-0.03089267,0.02343582,0.01491370
1691761073457333,-0.20590134,-0.01436521,8.98304462,-0.03408846,0.03302320,0.01065264
1691761073459288,0.14844051,0.52672440,8.97346783,-0.02982740,0.05006743,0.00532632
1691761073461445,0.38786069,0.51235914,8.92558384,-0.03195793,0.05539375,0.00106526
1691761073463284,0.37828386,0.84275901,8.96389103,-0.04687164,0.05006743,0.00213053
1691761073465354,0.23463176,0.47405192,9.03571701,-0.04793690,0.03515373,0.01491370
1691761073467341,0.33997664,0.41659111,8.96867943,-0.03941479,0.02876214,0.01917476
1691761073469267,0.10055647,0.53151280,9.18894577,-0.04687164,0.02130529,-0.00213053
1691761073471282,0.25378537,0.26336220,9.00698662,-0.04793690,-0.00532632,0.00000000
1691761073473284,0.25857377,0.30166942,9.18894577,-0.06178534,-0.01917476,0.01491370
1691761073475462,0.07661445,0.19153613,9.40921307,-0.06178534,-0.01917476,0.01065264
1691761073477331,0.33039984,0.28730419,9.06923580,-0.06711166,-0.03728426,-0.00426106
1691761073479266,-0.01915361,0.28251579,9.49540424,-0.06817693,-0.05645901,0.01171791
1691761073481279,0.01915361,0.17238252,9.30865574,-0.06072007,-0.05006743,0.01065264
1691761073483420,0.18674773,0.21068975,9.20331097,-0.05006743,-0.05752428,-0.00639159
1691761073485358,-0.19153613,-0.07661445,9.66778660,-0.06072007,-0.05752428,0.00319579
1691761073487272,0.02873042,0.10055647,9.18894577,-0.06817693,-0.04900216,0.01278317
1691761073489281,-0.11971009,0.06703765,9.44752026,-0.06178534,-0.04261058,0.00639159
1691761073491317,-0.24420857,-0.00957681,9.59117222,-0.07563377,-0.02769688,0.00319579
1691761073493325,0.02394202,0.28251579,9.20809937,-0.09161274,-0.02450108,-0.00532632
1691761073495288,-0.22026655,-0.08619126,9.70609379,-0.10333065,-0.01491370,-0.00319579
1691761073497364,-0.02873042,0.16280572,9.48103905,-0.08522116,-0.01704423,-0.01917476
1691761073499308,-0.03351882,0.26336220,9.48103905,-0.07137272,-0.02343582,-0.01065264
1691761073501389,-0.23942018,-0.01915361,9.77791977,-0.07137272,-0.04048005,-0.01810949
1691761073503315,0.07661445,0.34955344,9.39484787,-0.06924219,-0.04048005,0.00426106
1691761073505349,-0.11492168,0.04309563,9.72045898,-0.06498113,-0.05539375,-0.01278317
1691761073507332,-0.04309563,0.03351882,9.70609379,-0.07350325,-0.05219796,0.00106526
1691761073509294,0.12928689,0.38307226,9.57680702,-0.07669904,-0.05113269,0.00213053
1691761073511305,-0.05267244,0.07661445,9.78749657,-0.07030746,-0.03728426,0.01171791
1691761073513225,-0.03351882,0.04309563,9.79228497,-0.05752428,-0.02663161,0.01065264
1691761073515425,-0.09097967,0.08619126,9.88326454,-0.03834952,-0.02556635,0.02663161
1691761073517327,-0.02873042,0.04309563,9.86889935,-0.03728426,-0.02663161,0.00106526
1691761073519282,0.00000000,0.20590134,9.72524738,-0.04474111,-0.02556635,0.01597897
1691761073521280,-0.13407530,0.03830723,9.90241814,-0.05432849,-0.03515373,0.00745685
1691761073523394,-0.03830723,-0.03830723,9.87368774,-0.05219796,-0.04580637,0.01491370
1691761073525342,-0.13886370,0.04309563,9.97424412,-0.07563377,-0.05965481,0.00319579
1691761073527506,-0.09576806,0.04788403,9.98860931,-0.06817693,-0.06178534,0.00639159
1691761073529264,-0.06703765,0.26815060,9.97903252,-0.05752428,-0.04900216,0.01597897
1691761073531372,-0.13407530,0.11492168,10.06043530,-0.05858954,-0.04474111,0.02556635
1691761073533368,0.09576806,0.20590134,9.89762974,-0.06178534,-0.04687164,0.01278317
1691761073535300,-0.11013328,0.23942018,9.97903252,-0.05965481,-0.04474111,0.02450108
1691761073537307,-0.21547815,0.06703765,10.01255131,-0.06817693,-0.04793690,0.01491370
1691761073539260,0.05267244,0.19632454,9.92157173,-0.05752428,-0.05645901,0.01597897
1691761073541491,-0.17717093,0.07182605,10.17056847,-0.05858954,-0.05539375,0.00000000
1691761073543318,0.05746084,0.19153613,9.81622696,-0.06391586,-0.05113269,0.00213053
1691761073545399,-0.03351882,0.22505496,10.02691650,-0.06604639,-0.04900216,-0.00213053
1691761073547284,-0.00478840,0.11013328,9.86411095,-0.08096009,-0.04048005,0.00639159
1691761073549374,0.07661445,0.16759412,9.82101536,-0.08522116,-0.04261058,0.00213053
1691761073551304,-0.09576806,0.04309563,10.02212811,-0.09267800,-0.04900216,0.00000000
1691761073553392,0.02873042,0.15322891,9.80665016,-0.09480853,-0.05326322,-0.01384844
1691761073555284,-0.09576806,0.11492168,10.07958889,-0.09480853,-0.06178534,-0.00639159
1691761073557316,-0.14844051,-0.00478840,10.07001209,-0.09161274,-0.07456851,-0.01278317
1691761073559301,0.10534488,0.17238252,9.85453415,-0.09267800,-0.07563377,-0.01171791
1691761073561299,-0.15801731,0.02394202,10.21845245,-0.09906960,-0.07563377,-0.00426106
1691761073563301,0.13407530,0.23942018,9.83538055,-0.09480853,-0.07563377,-0.00106526
1691761073565318,-0.24420857,0.00957681,10.19929886,-0.07882957,-0.06285060,-0.00213053
1691761073567332,-0.17238252,0.01915361,10.07001209,-0.06391586,-0.05645901,-0.00106526
1691761073569309,0.00000000,0.22026655,9.80186176,-0.06711166,-0.05858954,-0.00213053
1691761073571285,-0.27772740,-0.00957681,10.16578007,-0.06817693,-0.06604639,0.00639159
1691761073573307,-0.02394202,0.17717093,9.92636013,-0.06178534,-0.06391586,0.01491370
1691761073575330,-0.06703765,0.13407530,10.02691650,-0.07030746,-0.06498113,0.01704423
1691761073577355,-0.13886370,0.05267244,10.14183807,-0.07563377,-0.06924219,0.02237055
1691761073579311,0.03830723,0.32082301,9.90241814,-0.06604639,-0.06178534,0.02237055
1691761073581310,-0.13886370,0.11013328,10.11310768,-0.04900216,-0.05539375,0.01491370
1691761073583337,0.00000000,0.25378537,10.03170490,-0.04474111,-0.05219796,0.01704423
1691761073585315,-0.16759412,0.13407530,10.06522369,-0.04154531,-0.05645901,0.01491370
1691761073587327,-0.19632454,-0.00957681,10.06522369,-0.04793690,-0.06285060,0.01065264
1691761073589276,-0.05267244,0.19632454,10.00297451,-0.05326322,-0.06072007,0.00319579
1691761073591361,-0.11492168,-0.00478840,10.10831928,-0.05219796,-0.06924219,0.00639159
1691761073593300,0.04788403,0.14844051,10.02212811,-0.06072007,-0.07243798,0.00532632
1691761073595331,-0.06703765,0.16759412,10.04128170,-0.07137272,-0.06498113,0.00213053
1691761073597293,-0.01436521,0.06703765,9.91678333,-0.06817693,-0.05219796,0.00319579
1691761073599308,-0.04309563,0.18674773,10.03649330,-0.06924219,-0.04580637,0.01384844
