timestamp,accel_x,accel_y,accel_z,gyro_x,gyro_y,gyro_z
1691768151000340,0.04309563,0.13407530,9.91199493,-0.00319579,-0.02024002,0.03408846
1691768151002398,0.06224924,0.11971009,9.87368774,0.00000000,-0.02024002,0.02769688
1691768151004378,0.05746084,0.04788403,9.84974575,0.00000000,-0.02024002,0.01491370
1691768151006331,0.03351882,0.06703765,9.84016895,-0.00532632,-0.01917476,0.00106526
1691768151008369,0.01915361,0.09097967,9.87368774,-0.00745685,-0.01917476,-0.00106526
1691768151010395,0.00957681,0.11013328,9.89284134,-0.00426106,-0.01597897,0.00852212
1691768151012360,0.03351882,0.11492168,9.91199493,0.00213053,-0.02024002,0.02237055
1691768151014385,0.02873042,0.07661445,9.92157173,-0.00319579,-0.01917476,0.03408846
1691768151016344,0.05267244,0.07661445,9.92157173,-0.00745685,-0.02343582,0.03621899
1691768151018434,0.02873042,0.09576806,9.89284134,-0.00426106,-0.02130529,0.02237055
1691768151020378,0.03830723,0.11971009,9.83059216,0.00106526,-0.02024002,0.00852212
1691768151022354,0.02873042,0.13886370,9.83059216,0.00639159,-0.01917476,0.00000000
1691768151024370,0.04788403,0.03830723,9.85932255,0.00319579,-0.02237055,0.00426106
1691768151026334,0.06224924,0.06224924,9.87847614,-0.00319579,-0.02343582,0.01810949
1691768151028379,0.02873042,0.13407530,9.92157173,-0.00319579,-0.02237055,0.03302320
1691768151030410,0.04309563,0.14365210,9.92157173,0.00532632,-0.02024002,0.03515373
1691768151032338,0.04309563,0.15801731,9.85453415,0.00639159,-0.01704423,0.02769688
1691768151034374,0.06224924,0.06703765,9.82101536,0.00532632,-0.02024002,0.01491370
1691768151036407,0.04309563,0.05267244,9.82101536,0.00106526,-0.02130529,0.00213053
1691768151038387,0.03351882,0.10055647,9.84016895,0.00106526,-0.02343582,0.00106526
1691768151040367,0.00478840,0.14365210,9.87368774,-0.00213053,-0.01917476,0.01171791
1691768151042515,0.02873042,0.14365210,9.91199493,-0.00426106,-0.02024002,0.02663161
1691768151044371,0.05267244,0.10055647,9.92157173,-0.01278317,-0.01704423,0.03515373
1691768151046351,0.08140286,0.11492168,9.89762974,-0.00958738,-0.02237055,0.03195793
1691768151048347,0.05267244,0.17238252,9.86411095,-0.00532632,-0.01810949,0.01597897
1691768151050375,0.04788403,0.14365210,9.84495735,0.00000000,-0.01704423,0.00106526
1691768151052358,0.04309563,0.12928689,9.81143856,0.00000000,-0.01810949,-0.00213053
1691768151054366,0.08140286,0.09097967,9.84495735,-0.00745685,-0.02130529,0.00745685
1691768151056362,0.06703765,0.07182605,9.88805294,-0.01384844,-0.02024002,0.02663161
1691768151058348,0.05267244,0.12928689,9.91678333,-0.01491370,-0.01704423,0.04261058
1691768151060421,0.06224924,0.17238252,9.91199493,-0.00958738,-0.01384844,0.03941479
1691768151062374,0.04309563,0.16280572,9.88805294,-0.00958738,-0.01171791,0.02663161
1691768151064398,0.05267244,0.10534488,9.83538055,-0.00639159,-0.01491370,0.00532632
1691768151066337,0.03351882,0.11013328,9.83538055,-0.00213053,-0.01810949,-0.00639159
1691768151068358,0.01915361,0.12928689,9.84016895,-0.00106526,-0.01810949,-0.00532632
1691768151070388,0.03830723,0.11013328,9.87368774,-0.00426106,-0.01597897,0.01171791
1691768151072399,0.04788403,0.09097967,9.88326454,-0.01065264,-0.01597897,0.03089267
1691768151074361,0.05267244,0.14844051,9.87368774,-0.01278317,-0.01171791,0.04474111
1691768151076344,0.06224924,0.15801731,9.88805294,-0.01597897,-0.01491370,0.04048005
1691768151078439,0.04309563,0.16759412,9.85453415,-0.01171791,-0.01810949,0.02237055
1691768151080410,0.03351882,0.14844051,9.83538055,-0.01065264,-0.01917476,0.00319579
1691768151082368,0.02873042,0.10534488,9.84495735,-0.00532632,-0.02024002,-0.00319579
1691768151084413,0.05267244,0.11013328,9.84495735,-0.00532632,-0.02024002,0.00213053
1691768151086386,0.03830723,0.07661445,9.87847614,-0.00958738,-0.01597897,0.01917476
1691768151088366,0.03830723,0.11013328,9.91199493,-0.01491370,-0.01278317,0.03089267
1691768151090360,0.04788403,0.14365210,9.90720654,-0.01278317,-0.01384844,0.03515373
1691768151092373,0.04309563,0.16280572,9.88805294,-0.00958738,-0.01491370,0.02663161
1691768151094413,0.01436521,0.12928689,9.83059216,-0.00639159,-0.01810949,0.01704423
1691768151096353,0.02873042,0.09097967,9.84016895,-0.00106526,-0.02024002,0.00852212
1691768151098345,0.05746084,0.09576806,9.86889935,0.00426106,-0.02024002,0.00745685
1691768151100346,0.05746084,0.09576806,9.86889935,0.00213053,-0.01917476,0.01171791
1691768151102407,0.05746084,0.04788403,9.90241814,-0.00852212,-0.01384844,0.01810949
1691768151104401,0.03830723,0.09097967,9.90720654,-0.02024002,-0.01065264,0.02556635
1691768151106340,0.04309563,0.15322891,9.88326454,-0.02024002,-0.01597897,0.02663161
1691768151108345,0.03351882,0.13407530,9.89762974,-0.01384844,-0.02130529,0.02450108
1691768151110457,0.01915361,0.06703765,9.85932255,-0.00852212,-0.02237055,0.01597897
1691768151112376,0.03351882,0.08140286,9.85453415,-0.00426106,-0.02130529,0.01704423
1691768151114360,0.05267244,0.09576806,9.88326454,0.00319579,-0.01704423,0.01278317
1691768151116320,0.07182605,0.11013328,9.89762974,0.00213053,-0.01597897,0.01597897
1691768151118369,0.07182605,0.12449849,9.91199493,0.00106526,-0.01810949,0.01704423
1691768151120431,0.03351882,0.11971009,9.91199493,-0.00426106,-0.01704423,0.01917476
1691768151122383,0.01915361,0.10055647,9.88326454,-0.00532632,-0.01810949,0.01597897
1691768151124371,0.03830723,0.15801731,9.84974575,-0.00426106,-0.02343582,0.01704423
1691768151126362,0.03351882,0.11492168,9.84495735,-0.00106526,-0.02450108,0.01917476
1691768151128484,0.05267244,0.11013328,9.86889935,0.00532632,-0.02343582,0.02343582
1691768151130385,0.07661445,0.11492168,9.87368774,0.00426106,-0.01917476,0.02130529
1691768151132358,0.07182605,0.11013328,9.87847614,0.00106526,-0.01384844,0.02024002
1691768151134376,0.08140286,0.16280572,9.88805294,-0.00532632,-0.01491370,0.01278317
1691768151136382,0.03830723,0.16280572,9.85932255,-0.00852212,-0.02024002,0.01278317
1691768151138391,0.00000000,0.21068975,9.84016895,-0.00426106,-0.02450108,0.01384844
1691768151140365,0.01436521,0.16280572,9.84974575,0.00106526,-0.02556635,0.01597897
1691768151142350,0.03830723,0.05746084,9.84016895,0.00106526,-0.02237055,0.01917476
1691768151144567,0.07182605,0.10534488,9.85453415,-0.00213053,-0.01810949,0.02130529
1691768151146360,0.05746084,0.14844051,9.90241814,-0.01065264,-0.01491370,0.02024002
1691768151148362,0.02873042,0.17717093,9.90720654,-0.00852212,-0.01704423,0.02024002
1691768151150368,0.03351882,0.17238252,9.88805294,-0.00958738,-0.02024002,0.02130529
1691768151152362,0.00957681,0.06224924,9.86411095,-0.01278317,-0.02237055,0.01810949
1691768151154563,0.01915361,0.12449849,9.81143856,-0.00958738,-0.02343582,0.01917476
1691768151156322,0.04309563,0.13407530,9.80186176,-0.02663161,-0.01491370,0.01065264
1691768151158354,0.12449849,0.14844051,9.92157173,-0.01597897,-0.01704423,0.01278317
1691768151160348,0.03351882,0.13886370,9.99818611,-0.01065264,-0.00426106,0.00532632
1691768151162559,0.10055647,0.16280572,10.11310768,-0.01810949,-0.00639159,-0.00106526
1691768151164410,0.05746084,0.12449849,10.18493366,-0.05752428,-0.00639159,0.02343582
1691768151166331,0.01915361,-0.00478840,10.15141487,-0.08309063,-0.00319579,0.04687164
1691768151168403,0.13886370,0.09576806,10.02691650,-0.03408846,-0.00213053,0.05965481
1691768151170369,0.32082301,0.23463176,9.96466732,0.00000000,0.00106526,0.08841695
1691768151172379,0.14365210,0.00957681,9.85932255,-0.03515373,0.03728426,0.15126754
1691768151174342,-0.02873042,-0.22984336,9.76834297,-0.04687164,0.05965481,0.18642128
1691768151176352,0.33518824,-0.05267244,9.87847614,-0.05219796,0.07563377,0.20133498
1691768151178384,0.55066639,0.04788403,10.05564690,-0.03941479,0.09054748,0.23329291
1691768151180395,0.36391866,-0.02873042,10.18972206,0.02343582,0.13315806,0.26738137
1691768151182347,0.43574470,0.13886370,10.30464458,0.04048005,0.21518342,0.30466563
1691768151184351,0.53630120,-0.04788403,10.43871975,0.03941479,0.27270770,0.32597092
1691768151186368,0.52193600,-0.24420857,10.68292809,-0.01704423,0.32916671,0.34727621
1691768151188367,0.52672440,-0.16759412,10.76911926,-0.03834952,0.43569314,0.37177730
1691768151190404,0.53630120,-0.09576806,10.68292809,-0.05645901,0.54115433,0.40906155
1691768151192484,0.28730419,-0.01915361,10.72123528,-0.08948221,0.60933125,0.41225734
1691768151194455,0.19632454,-0.33518824,10.79306126,-0.10652644,0.74568510,0.39947417
1691768151196334,0.08619126,-0.16759412,10.68292809,-0.12783173,0.80747044,0.40799627
1691768151198360,0.02394202,0.12449849,10.63504410,-0.14700650,0.85434210,0.41864893
1691768151200343,-0.04309563,-0.19153613,10.62546730,-0.16724652,0.87777787,0.44528052
1691768151202356,-0.05267244,-0.14844051,10.52491093,-0.16192019,0.89375687,0.43462789
1691768151204446,0.00478840,0.11492168,10.78827286,-0.19281286,0.92784530,0.45167211
1691768151206362,0.00957681,-0.16759412,11.01332760,-0.21092236,0.87245154,0.43995422
1691768151208353,0.10055647,-0.04309563,10.98459721,-0.20453078,0.85434210,0.43569314
1691768151210388,0.05267244,-0.15801731,11.20965195,-0.21305288,0.84901577,0.44741106
1691768151212414,0.13407530,-0.11971009,11.48259163,-0.23329291,0.79468727,0.44954160
1691768151214381,0.20111294,-0.00478840,11.63103199,-0.20559603,0.75846827,0.45593318
1691768151216350,0.09576806,-0.17717093,11.91833591,-0.20772657,0.74781561,0.43462789
1691768151218367,0.28730419,0.19153613,11.88481712,-0.21305288,0.71798825,0.44954160
1691768151220419,0.27293900,0.08619126,12.10029507,-0.23009712,0.68922609,0.46339002
1691768151222366,0.10534488,-0.02873042,12.25352383,-0.22264026,0.69668293,0.40480047
1691768151224384,0.25378537,-0.07182605,12.24394703,-0.22264026,0.68070400,0.41545314
1691768151226333,0.11492168,0.14844051,12.49773312,-0.23222765,0.64448500,0.42397526
1691768151228415,0.14844051,0.01436521,12.45942593,-0.22796659,0.63809341,0.38349521
1691768151230402,0.07182605,-0.09576806,12.61265469,-0.18855180,0.61998391,0.35792884
1691768151232347,0.16759412,0.11492168,12.59350109,-0.19068234,0.57950383,0.37071201
1691768151234459,0.07661445,-0.13886370,12.72278786,-0.22583605,0.54008907,0.34301513
1691768151236376,0.19153613,0.06703765,12.61744308,-0.24288028,0.52304482,0.33023196
1691768151238523,0.50757074,-0.05267244,12.55998230,-0.23116238,0.52091432,0.32810146
1691768151240384,0.18195933,0.02873042,12.70363426,-0.25779399,0.48576057,0.31318775
1691768151242352,0.19632454,0.19153613,12.62701988,-0.27057716,0.46658581,0.30679616
1691768151244352,0.12928689,-0.15322891,12.81376743,-0.25672874,0.44101948,0.31425300
1691768151246397,0.18674773,0.10055647,12.81855583,-0.25246766,0.42823631,0.30360037
1691768151248496,0.19153613,-0.18674773,12.84249783,-0.28229508,0.40799627,0.28549087
1691768151250390,0.11492168,-0.09097967,12.90474701,-0.29827404,0.38456047,0.28762141
1691768151252392,0.29209262,0.12928689,12.90953541,-0.28336033,0.36218992,0.27590349
1691768151254422,0.11013328,-0.26815060,13.00051498,-0.29188246,0.36218992,0.25140241
1691768151256376,0.28730419,0.19153613,13.03882217,-0.30999196,0.35686359,0.24820662
1691768151258369,0.06703765,-0.29688102,13.08191776,-0.33236250,0.31105721,0.23861924
1691768151260378,0.16280572,-0.03351882,13.03403378,-0.34301513,0.29614350,0.21518342
1691768151262455,0.17717093,-0.05746084,13.06276417,-0.32703617,0.29081720,0.20772657
1691768151264393,0.16280572,-0.21547815,13.12980175,-0.32916671,0.26418558,0.19068234
1691768151266380,0.37828386,0.22984336,13.05318737,-0.34301513,0.23009712,0.20026971
1691768151268416,0.11971009,-0.11492168,13.05797577,-0.30573088,0.18961707,0.18642128
1691768151270455,0.43095630,0.24899697,12.95741940,-0.29188246,0.15659387,0.17470337
1691768151272407,0.17717093,0.11013328,13.04361057,-0.27909929,0.10865697,0.16831177
1691768151274408,0.30166942,0.00957681,12.83770943,-0.26098979,0.07030746,0.17150757
1691768151276326,0.29688102,0.19153613,12.83292103,-0.22264026,0.03408846,0.16405073
1691768151278402,0.27772740,0.12449849,12.77067184,-0.19068234,-0.00213053,0.16618125
1691768151280351,0.51235914,0.27293900,12.64617348,-0.18216021,-0.04900216,0.14913702
1691768151282394,0.29209262,0.08619126,12.45463753,-0.16937704,-0.08948221,0.15659387
1691768151284352,0.48362875,0.04788403,12.34929276,-0.14807175,-0.11717909,0.14168017
1691768151286341,0.28730419,0.19153613,12.45942593,-0.14274544,-0.15552860,0.13741912
1691768151288485,0.37349546,0.17717093,12.19127464,-0.15339808,-0.18109496,0.13422331
1691768151290430,0.39743748,0.15801731,12.01889229,-0.14594123,-0.20133498,0.12357067
1691768151292362,0.21068975,0.25378537,11.99495029,-0.13635385,-0.21624868,0.11717909
1691768151294499,0.46447513,0.14844051,11.72679996,-0.11611383,-0.23861924,0.11717909
1691768151296479,0.11971009,0.21547815,11.80820274,-0.08841695,-0.25140241,0.10652644
1691768151298360,0.29688102,0.17238252,11.55920601,-0.04367584,-0.27696875,0.10439591
1691768151300400,0.24899697,0.17238252,11.54484081,-0.02876214,-0.29827404,0.10972223
1691768151302384,0.16280572,0.25857377,11.46343803,-0.00958738,-0.31425300,0.10333065
1691768151304360,0.33039984,0.06703765,11.20965195,0.02450108,-0.33768883,0.10120012
1691768151306347,0.24420857,0.46447513,11.17613316,0.05858954,-0.35260254,0.09587380
1691768151308352,0.31603462,0.21547815,10.95586681,0.07137272,-0.36432043,0.09161274
1691768151310460,0.09097967,0.24899697,10.99896240,0.11717909,-0.35792884,0.08309063
1691768151312398,0.17717093,0.24420857,10.81700325,0.13209279,-0.36432043,0.07350325
1691768151314566,0.45968673,0.21547815,10.61110210,0.12676647,-0.36432043,0.07563377
1691768151316329,0.19153613,0.28730419,10.81221485,0.14487596,-0.38029939,0.08202536
1691768151318454,0.50278234,0.23942018,10.55364132,0.16831177,-0.41438785,0.06285060
1691768151320407,0.25857377,0.28251579,10.57279491,0.15872440,-0.42397526,0.06817693
1691768151322411,0.12928689,0.30645782,10.60152531,0.14168017,-0.46125951,0.07030746
1691768151324377,0.35913026,0.07182605,10.38604736,0.13422331,-0.47084689,0.06391586
1691768151326363,-0.10534488,-0.01915361,10.56321812,0.13422331,-0.48895636,0.06072007
1691768151328476,0.22984336,-0.02394202,10.29985619,0.13635385,-0.50387007,0.05858954
1691768151330404,0.14365210,-0.14365210,10.24239445,0.13209279,-0.48895636,0.05858954
1691768151332458,-0.00957681,-0.14844051,10.27591324,0.13315806,-0.49215218,0.03834952
1691768151334385,0.35434186,-0.04309563,9.95509052,0.12783173,-0.48149952,0.05006743
1691768151336424,0.12449849,-0.07182605,10.07480049,0.14487596,-0.46232477,0.03515373
1691768151338401,0.10534488,0.03351882,9.79228497,0.15872440,-0.46125951,0.03621899
1691768151340422,0.33997664,0.16280572,9.77313137,0.17257284,-0.44634581,0.02450108
1691768151342511,0.07661445,0.09097967,9.89762974,0.17257284,-0.43462789,0.02769688
1691768151344367,0.13886370,0.16280572,9.65820980,0.18535601,-0.44634581,0.02450108
1691768151346320,-0.01436521,0.09097967,9.68215179,0.19494340,-0.46232477,0.03302320
1691768151348320,-0.08140286,0.13886370,9.72524738,0.20346551,-0.45380265,0.03834952
1691768151350384,0.19632454,0.23942018,9.57201862,0.23542345,-0.42077947,0.03515373
1691768151352483,-0.09097967,0.05267244,9.62469101,0.24820662,-0.41651839,0.03408846
1691768151354535,0.16759412,0.24420857,9.58159542,0.28868666,-0.40480047,0.04793690
1691768151356393,0.00000000,0.10055647,9.55765343,0.29827404,-0.38242993,0.04580637
1691768151358378,-0.01915361,0.17238252,9.62469101,0.29614350,-0.36751622,0.04048005
1691768151360394,-0.06224924,0.02873042,9.50019264,0.28229508,-0.35579833,0.04367584
1691768151362355,-0.15801731,-0.04788403,9.39005947,0.25566345,-0.35260254,0.05432849
1691768151364449,-0.15801731,-0.00478840,9.45230865,0.24927188,-0.36538571,0.04687164
1691768151366368,-0.07182605,0.04788403,9.28950214,0.24074976,-0.38775626,0.02024002
1691768151368351,0.03830723,-0.06703765,9.20331097,0.26738137,-0.46552056,-0.02663161
1691768151370472,0.15322891,0.00000000,9.33738708,0.29827404,-0.51132691,-0.06817693
1691768151372431,0.37828386,0.19153613,9.31344414,0.34940675,-0.61785334,-0.10226539
1691768151374327,0.44053310,0.30645782,9.31823349,0.45806372,-0.73183668,-0.07776430
1691768151376337,0.51714754,0.58897364,9.19852257,0.55500275,-0.81173152,-0.04687164
1691768151378480,0.50757074,0.51714754,8.99740982,0.61785334,-0.85434210,-0.02130529
1691768151380452,0.41180268,0.57460839,8.92558384,0.70094401,-0.88523477,-0.03195793
1691768151382367,0.44053310,0.59855044,8.84896946,0.73503244,-0.88843054,-0.06178534
1691768151384353,0.16280572,0.39264908,8.89685345,0.70200926,-0.84795052,-0.15659387
1691768151386359,0.19153613,0.24899697,8.83939266,0.66898608,-0.76166409,-0.22264026
1691768151388425,0.16280572,0.06224924,8.87291145,0.75420719,-0.74355459,-0.20772657
1691768151390511,-0.04309563,0.05746084,9.16979218,0.68922609,-0.64235443,-0.23648870
1691768151392366,-0.05746084,-0.00478840,9.20331097,0.57524282,-0.57417750,-0.12144014
1691768151394358,-0.24420857,-0.24420857,9.13148499,0.47404268,-0.49108690,-0.08415589
1691768151396385,-0.31603462,-0.35913026,9.33738708,0.43249735,-0.41012681,-0.02663161
1691768151398489,-0.24420857,-0.33039984,9.43315506,0.33981934,-0.30573088,0.01384844
1691768151400400,-0.38786069,-0.47405192,9.44752026,0.23648870,-0.23222765,0.06711166
1691768151402368,-0.41180268,-0.59376204,9.45230865,0.20666130,-0.15978967,0.06498113
1691768151404426,-0.33997664,-0.47405192,9.42836666,0.16405073,-0.09906960,0.05432849
1691768151406369,-0.32561144,-0.35434186,9.55765343,0.09480853,-0.07563377,0.05006743
1691768151408481,-0.27772740,-0.50757074,9.66778660,0.02769688,-0.04261058,0.04474111
1691768151410364,-0.33039984,-0.20590134,9.54807663,0.01917476,-0.00852212,0.00426106
1691768151412472,-0.20111294,-0.38786069,9.63905621,0.02450108,-0.02130529,-0.02237055
1691768151414405,-0.19632454,-0.06224924,9.74918938,-0.04793690,-0.04687164,-0.00745685
1691768151416452,-0.02873042,-0.06224924,9.79707336,-0.05219796,-0.04261058,0.00000000
1691768151418381,-0.10534488,-0.21068975,9.86889935,-0.03408846,-0.06285060,-0.01917476
1691768151420387,0.13407530,0.25857377,9.77791977,-0.08415589,-0.09587380,0.00000000
1691768151422418,-0.17238252,-0.36870706,10.09874249,-0.08628642,-0.12250541,0.02663161
1691768151424379,-0.24899697,-0.19632454,10.08437729,-0.08096009,-0.12889700,0.02343582
1691768151426372,0.10055647,0.13407530,9.87368774,-0.10333065,-0.12889700,0.00852212
1691768151428365,-0.20590134,-0.28730419,10.16099167,-0.12463594,-0.14700650,0.04474111
1691768151430543,-0.21068975,-0.15322891,10.11789608,-0.09480853,-0.14594123,0.03195793
1691768151432390,-0.04309563,0.01436521,10.22802925,-0.12996227,-0.11611383,0.02024002
1691768151434516,-0.13407530,-0.07661445,10.30464458,-0.14913702,-0.09054748,0.02876214
1691768151436351,0.02394202,0.15801731,10.09395409,-0.14700650,-0.07776430,0.04474111
1691768151438501,-0.10055647,0.02394202,10.15141487,-0.15978967,-0.04580637,0.02769688
1691768151440415,-0.20111294,0.18195933,10.22324085,-0.19281286,-0.02024002,0.00532632
1691768151442371,0.03351882,0.39264908,10.02691650,-0.21624868,0.01171791,0.02556635
1691768151444359,-0.15801731,0.09097967,10.10353088,-0.20666130,0.03089267,0.03089267
1691768151446356,-0.11492168,0.33039984,10.07480049,-0.20666130,0.04154531,0.01810949
1691768151448378,-0.10055647,0.32082301,10.01733971,-0.21731395,0.05219796,0.00213053
1691768151450374,-0.26336220,0.05267244,10.18972206,-0.21731395,0.06924219,0.01278317
1691768151452352,-0.14844051,0.17717093,10.07958889,-0.20133498,0.06604639,0.01704423
1691768151454366,-0.11013328,0.11013328,10.00776291,-0.19494340,0.05432849,0.01278317
1691768151456485,-0.10055647,0.11971009,10.15141487,-0.18642128,0.04687164,0.00958738
1691768151458426,0.06224924,0.26336220,10.09395409,-0.16511598,0.02876214,0.02024002
1691768151460350,0.05267244,0.18195933,10.11310768,-0.16618125,-0.00106526,0.03195793
1691768151462386,0.06703765,0.28730419,10.15141487,-0.17576863,-0.01384844,0.02982740
1691768151464482,0.10055647,0.24899697,10.14183807,-0.16831177,-0.03195793,0.02982740
1691768151466383,-0.09576806,0.04309563,10.24718285,-0.17470337,-0.03728426,0.01704423
1691768151468412,-0.00957681,0.22505496,10.24239445,-0.18855180,-0.03195793,0.02237055
1691768151470361,-0.01915361,0.00000000,10.29027843,-0.19281286,-0.04261058,0.01597897
1691768151472441,-0.02873042,0.19632454,10.33337498,-0.19494340,-0.03941479,0.01278317
1691768151474491,0.22505496,0.33997664,10.27112484,-0.20346551,-0.02663161,0.01704423
1691768151476363,-0.12928689,0.11013328,10.34774017,-0.18535601,-0.04048005,0.02130529
1691768151478313,0.06703765,0.44053310,10.31422138,-0.17470337,-0.03302320,0.01384844
1691768151480437,-0.03351882,0.13407530,10.33337498,-0.16298546,-0.02982740,0.01171791
1691768151482368,-0.12449849,0.14365210,10.33337498,-0.16192019,-0.02876214,0.00852212
1691768151484402,0.05267244,0.28730419,10.19929886,-0.15020229,-0.02663161,0.00745685
1691768151486358,-0.08140286,0.04788403,10.27112484,-0.15872440,-0.02556635,0.01384844
1691768151488422,0.03351882,0.32561144,10.17535686,-0.16192019,-0.03621899,0.02982740
1691768151490381,0.12928689,0.28251579,10.12268448,-0.16618125,-0.01917476,0.02237055
1691768151492414,-0.07182605,0.04788403,10.14183807,-0.16298546,-0.01384844,0.02237055
1691768151494361,0.06703765,0.29209262,10.01733971,-0.16724652,-0.00426106,0.01917476
1691768151496363,-0.07661445,-0.04309563,10.12268448,-0.18961707,0.01704423,0.02130529
1691768151498383,-0.10534488,-0.07182605,10.18014526,-0.20772657,0.02876214,0.01597897
1691768151500363,0.04309563,0.14844051,10.10353088,-0.22050974,0.05645901,0.01810949
1691768151502357,-0.11492168,-0.00478840,10.20887566,-0.21944447,0.06285060,0.00958738
1691768151504359,0.00000000,0.24899697,10.15620327,-0.22370553,0.06285060,0.00532632
1691768151506390,0.01915361,0.18195933,10.18493366,-0.23329291,0.04900216,0.00000000
1691768151508408,-0.10055647,-0.01915361,10.19451046,-0.22370553,0.05006743,0.01597897
1691768151510366,-0.06703765,0.22984336,10.06043530,-0.21624868,0.03728426,0.01384844
1691768151512403,-0.12449849,0.01915361,10.05564690,-0.18642128,0.02876214,0.04687164
1691768151514559,-0.05267244,0.06703765,9.98382092,-0.16511598,0.05006743,0.03621899
1691768151516350,0.06224924,0.29688102,9.89284134,-0.14274544,0.06817693,0.04900216
1691768151518443,0.02873042,0.14365210,9.92636013,-0.14381070,0.07563377,0.03195793
1691768151520392,0.05267244,0.41180268,9.82101536,-0.12144014,0.08735169,0.05006743
1691768151522434,0.02394202,0.31603462,9.80665016,-0.10333065,0.09906960,0.03515373
1691768151524420,-0.01436521,0.19153613,9.85932255,-0.11717909,0.08202536,0.04048005
1691768151526361,0.02394202,0.37349546,9.79707336,-0.13422331,0.04900216,0.02663161
1691768151528357,-0.06224924,0.06224924,9.81143856,-0.10759171,0.00745685,0.02450108
1691768151530401,0.04788403,0.06703765,9.82101536,-0.10652644,-0.02982740,0.00745685
1691768151532487,0.24420857,0.28251579,9.91199493,-0.11078750,-0.07030746,0.00639159
1691768151534396,0.22505496,0.05267244,9.96945572,-0.12889700,-0.11185277,0.01065264
1691768151536334,0.29688102,0.15322891,9.88805294,-0.12783173,-0.15446334,0.00213053
1691768151538344,0.25378537,0.15322891,10.05085850,-0.14168017,-0.17789917,0.00852212
1691768151540396,0.30166942,0.19153613,10.04128170,-0.14487596,-0.18535601,0.02450108
1691768151542382,0.26815060,0.11013328,9.96945572,-0.13848437,-0.19281286,0.03302320
1691768151544353,0.20111294,-0.00957681,10.06522369,-0.12676647,-0.17896442,0.02343582
1691768151546355,0.21547815,0.07182605,10.00297451,-0.10439591,-0.16724652,0.02982740
1691768151548440,0.15322891,0.17238252,9.95509052,-0.11398330,-0.14274544,0.03515373
1691768151550398,0.06703765,0.06703765,9.92636013,-0.10333065,-0.13422331,0.00000000
1691768151552376,0.05746084,0.09576806,9.84974575,-0.12463594,-0.11078750,0.00639159
1691768151554475,-0.04788403,0.13886370,9.95509052,-0.13528858,-0.08948221,0.00639159
1691768151556373,-0.01436521,-0.06224924,10.00776291,-0.12889700,-0.09480853,-0.01171791
1691768151558376,0.00478840,0.10534488,9.93114853,-0.12676647,-0.08202536,-0.01491370
1691768151560356,-0.05746084,0.07661445,10.05085850,-0.12037488,-0.07137272,-0.00213053
1691768151562464,0.07182605,0.06224924,9.98382092,-0.09480853,-0.06711166,0.00639159
1691768151564397,0.09097967,0.25378537,9.96466732,-0.05752428,-0.06711166,0.00532632
1691768151566339,0.05267244,0.17238252,10.02212811,-0.06178534,-0.05326322,0.01384844
1691768151568398,0.05746084,0.34476504,9.91678333,-0.05752428,-0.05006743,0.01704423
1691768151570455,-0.04309563,0.30645782,9.93114853,-0.03941479,-0.04900216,0.01491370
1691768151572481,-0.01436521,0.04788403,9.92636013,-0.03515373,-0.03728426,0.01917476
1691768151574397,0.05746084,0.26815060,9.97903252,-0.02876214,-0.03728426,0.01704423
1691768151576347,0.09576806,0.04309563,10.08437729,-0.02130529,-0.04367584,0.02982740
1691768151578372,0.12928689,0.06703765,9.95987892,-0.01065264,-0.03834952,0.01917476
1691768151580388,0.11492168,0.28730419,9.98860931,-0.00426106,-0.03834952,0.01065264
1691768151582430,0.11013328,0.09576806,10.08916569,0.02237055,-0.03515373,0.01384844
1691768151584483,0.10055647,0.24899697,9.98382092,0.05113269,-0.02876214,0.02024002
1691768151586343,0.13407530,0.14365210,10.11310768,0.07137272,-0.04154531,0.00639159
1691768151588380,0.10534488,0.08619126,10.07001209,0.08309063,-0.04048005,0.01384844
1691768151590391,0.12449849,0.27293900,10.03170490,0.08522116,-0.03621899,0.02237055
1691768151592394,0.09576806,0.07661445,10.14183807,0.07137272,-0.03089267,0.00852212
1691768151594382,0.17717093,0.11971009,10.05564690,0.04580637,-0.04580637,0.02769688
1691768151596368,0.05267244,0.06703765,10.14662647,0.01810949,-0.04793690,0.03941479
1691768151598434,-0.03351882,-0.10534488,10.27591324,-0.01810949,-0.05219796,0.04474111
1691768151600364,0.03351882,0.02873042,10.23760605,-0.08202536,-0.06072007,0.05006743
1691768151602359,-0.04309563,-0.22505496,10.42914295,-0.12996227,-0.07243798,0.05965481
1691768151604381,0.10055647,-0.22984336,10.48660374,-0.18109496,-0.09587380,0.06178534
1691768151606355,0.08140286,-0.13407530,10.49618053,-0.23435818,-0.11185277,0.05645901
1691768151608390,0.18195933,-0.00957681,10.55842972,-0.26525083,-0.11078750,0.06285060
1691768151610390,0.19153613,0.00957681,10.47223854,-0.24394555,-0.12250541,0.04580637
1691768151612366,0.10055647,-0.05746084,10.42914295,-0.20346551,-0.13528858,0.05432849
1691768151614410,0.18195933,0.22026655,10.37647057,-0.14807175,-0.14913702,0.04580637
1691768151616362,0.07661445,0.07182605,10.37647057,-0.07776430,-0.14807175,0.04580637
1691768151618399,0.18674773,0.36870706,10.30943298,-0.01065264,-0.16511598,0.06498113
1691768151620348,0.15801731,0.47405192,10.11310768,0.05645901,-0.17576863,0.05219796
1691768151622370,0.14844051,0.41180268,10.19929886,0.14381070,-0.18961707,0.06924219
1691768151624335,0.07661445,0.61291564,10.14662647,0.16192019,-0.19174761,0.06604639
1691768151626348,0.11013328,0.25857377,9.94551373,0.19600865,-0.18429075,0.07030746
1691768151628348,0.03351882,0.54587799,9.94072533,0.19707392,-0.19707392,0.05645901
1691768151630371,0.05746084,0.26815060,9.84016895,0.21092236,-0.18429075,0.07776430
1691768151632463,0.03351882,0.30645782,9.82580376,0.20453078,-0.19068234,0.07882957
1691768151634386,-0.03830723,0.23463176,9.94551373,0.23755397,-0.18109496,0.07669904
1691768151636336,0.10055647,0.11013328,9.79707336,0.21411815,-0.18109496,0.08628642
1691768151638350,0.15801731,0.25857377,9.83538055,0.21411815,-0.17683390,0.08309063
1691768151640442,0.02394202,0.11971009,9.87368774,0.22903186,-0.16724652,0.09906960
1691768151642362,0.17717093,0.27772740,9.80665016,0.23435818,-0.17576863,0.07882957
1691768151644365,0.07661445,0.16759412,10.07001209,0.24927188,-0.17363811,0.08735169
1691768151646339,0.01915361,0.17717093,9.95509052,0.25672874,-0.18535601,0.08309063
1691768151648424,0.08619126,0.25857377,10.00297451,0.27803403,-0.16724652,0.06178534
1691768151650447,0.04788403,0.18195933,10.10353088,0.27590349,-0.17044231,0.07350325
1691768151652370,0.30166942,0.24420857,9.93114853,0.28868666,-0.19281286,0.08096009
1691768151654380,0.21547815,0.29209262,9.98382092,0.31105721,-0.18642128,0.09374327
1691768151656367,0.09097967,0.16280572,10.09874249,0.33236250,-0.18748654,0.08096009
1691768151658384,0.19632454,0.32082301,9.95987892,0.33875409,-0.18109496,0.07989483
1691768151660351,-0.09097967,0.06703765,10.07480049,0.33768883,-0.18002969,0.08202536
1691768151662361,0.15322891,0.14365210,9.84495735,0.37284255,-0.17150757,0.08841695
1691768151664372,0.03830723,0.22505496,9.90720654,0.35792884,-0.16085494,0.09693906
1691768151666381,-0.04309563,0.17717093,10.15141487,0.34194988,-0.15978967,0.09587380
1691768151668322,0.16280572,0.11971009,9.87368774,0.33768883,-0.14913702,0.09587380
1691768151670376,-0.14365210,0.06224924,10.06522369,0.35792884,-0.14913702,0.08096009
1691768151672397,-0.05267244,-0.00478840,10.01255131,0.36858150,-0.14274544,0.07563377
1691768151674392,0.02394202,0.07182605,9.83059216,0.37923414,-0.13635385,0.08096009
1691768151676340,-0.16759412,0.04309563,10.06043530,0.40160468,-0.13315806,0.07456851
1691768151678353,0.00000000,0.09097967,9.87847614,0.41012681,-0.11611383,0.06391586
1691768151680361,-0.10534488,0.04309563,10.01733971,0.41225734,-0.09906960,0.06711166
1691768151682371,-0.11492168,0.16759412,10.05085850,0.41332260,-0.08309063,0.07669904
1691768151684378,0.03830723,0.19153613,9.74440098,0.41119206,-0.05645901,0.06924219
1691768151686379,-0.00478840,0.07182605,9.89284134,0.39734364,-0.04687164,0.07030746
1691768151688472,-0.09097967,-0.13407530,9.90241814,0.37177730,-0.02663161,0.09054748
1691768151690416,-0.24899697,-0.19153613,9.71088219,0.35899413,-0.02130529,0.09800433
1691768151692409,-0.10055647,-0.26815060,9.59596062,0.35686359,-0.02343582,0.09054748
1691768151694366,0.09097967,-0.21068975,9.27513695,0.34940675,-0.03515373,0.08522116
1691768151696368,-0.11013328,-0.22026655,9.57201862,0.33768883,-0.04261058,0.08735169
1691768151698401,0.22026655,-0.09576806,9.38048267,0.33342776,-0.05326322,0.07989483
1691768151700414,0.08140286,-0.04788403,9.48103905,0.32597092,-0.07776430,0.07563377
1691768151702366,-0.12449849,-0.16280572,9.84974575,0.31318775,-0.10120012,0.07776430
1691768151704354,0.15322891,-0.05746084,9.68215179,0.31744879,-0.10759171,0.07030746
1691768151706348,-0.04309563,-0.05267244,9.93114853,0.31851408,-0.11611383,0.07137272
1691768151708464,0.01436521,0.07182605,9.86411095,0.31744879,-0.12676647,0.07669904
1691768151710432,0.12928689,0.07182605,9.70609379,0.33236250,-0.12996227,0.07563377
1691768151712364,-0.12928689,0.02873042,9.96945572,0.32703617,-0.12144014,0.06072007
1691768151714393,0.03830723,0.03351882,9.82101536,0.31212249,-0.10972223,0.06178534
1691768151716361,0.05267244,-0.05746084,9.80186176,0.29507825,-0.08841695,0.05219796
1691768151718462,-0.07182605,-0.03830723,9.95030212,0.27696875,-0.07563377,0.05326322
1691768151720361,0.12928689,0.00000000,9.72045898,0.24927188,-0.05858954,0.06498113
1691768151722392,-0.10534488,0.06224924,9.85453415,0.22157501,-0.03408846,0.06498113
1691768151724460,-0.13407530,0.13886370,9.83538055,0.21731395,-0.03408846,0.06285060
1691768151726375,-0.05746084,0.09097967,9.66778660,0.21411815,-0.01278317,0.05539375
1691768151728396,-0.21068975,0.06703765,9.82580376,0.22050974,-0.00958738,0.05858954
1691768151730385,-0.00478840,0.05746084,9.73003578,0.22264026,-0.01810949,0.05219796
1691768151732450,-0.04309563,0.01915361,9.73482418,0.21944447,-0.02769688,0.05858954
1691768151734415,-0.13886370,0.16280572,9.85932255,0.21305288,-0.01704423,0.06924219
1691768151736341,0.02394202,0.10534488,9.71567059,0.21518342,-0.02663161,0.07030746
1691768151738375,-0.11971009,0.11492168,9.84016895,0.23222765,-0.03195793,0.07776430
1691768151740443,-0.04309563,0.18195933,9.81622696,0.22370553,-0.01917476,0.08202536
1691768151742416,0.01436521,0.05267244,9.70609379,0.22690132,-0.02556635,0.08628642
1691768151744348,-0.15801731,0.08619126,9.81622696,0.22903186,-0.03195793,0.07776430
1691768151746344,-0.01436521,0.06703765,9.69651699,0.21837921,-0.00639159,0.06072007
1691768151748394,-0.13407530,0.02873042,9.74440098,0.20346551,0.01065264,0.05326322
1691768151750452,-0.15322891,0.17238252,9.77791977,0.19494340,0.02663161,0.04580637
1691768151752368,-0.11013328,0.12449849,9.60553741,0.20026971,0.05326322,0.05219796
1691768151754364,-0.22505496,0.31603462,9.58638382,0.20772657,0.09587380,0.03515373
1691768151756348,-0.07661445,0.36870706,9.45230865,0.24501082,0.13954964,0.02450108
1691768151758403,-0.13886370,0.34955344,9.25598335,0.28655612,0.18429075,0.00639159
1691768151760376,-0.19632454,0.50278234,9.27513695,0.31851408,0.22903186,0.02024002
1691768151762362,-0.19632454,0.18674773,9.22725296,0.33555830,0.25140241,0.01384844
1691768151764387,-0.25378537,0.26815060,9.14106178,0.34621096,0.28975192,0.01278317
1691768151766372,-0.20111294,0.11492168,9.21288776,0.34194988,0.29720879,0.00745685
1691768151768380,-0.18674773,-0.05746084,9.18415737,0.33236250,0.29827404,0.01384844
1691768151770371,-0.21068975,0.05267244,9.21767616,0.29720879,0.28229508,0.02130529
1691768151772399,-0.19632454,-0.09097967,9.32302189,0.25992453,0.27164242,0.02237055
1691768151774424,-0.05267244,0.03351882,9.32302189,0.19174761,0.22583605,0.05006743
1691768151776366,-0.05267244,-0.11492168,9.41400146,0.15339808,0.18322548,0.03621899
1691768151778387,0.06224924,-0.17717093,9.55286503,0.07243798,0.15978967,0.03728426
1691768151780394,0.05746084,-0.22026655,9.58638382,-0.00532632,0.12144014,0.01597897
1691768151782389,0.22026655,-0.17717093,9.59596062,-0.08096009,0.11078750,0.02343582
1691768151784398,0.25857377,-0.08140286,9.73482418,-0.11824435,0.08415589,0.00852212
1691768151786358,0.11013328,-0.15801731,9.68694019,-0.14168017,0.08309063,0.01597897
1691768151788363,0.36391866,0.15322891,9.68215179,-0.15339808,0.07882957,0.01278317
1691768151790363,0.05267244,-0.20590134,9.87368774,-0.14061491,0.08415589,0.00852212
1691768151792318,0.20111294,-0.08140286,9.68215179,-0.15552860,0.09693906,0.00000000
1691768151794397,0.23463176,-0.04788403,9.84016895,-0.19068234,0.08948221,-0.00426106
1691768151796339,-0.18674773,-0.46926352,9.97424412,-0.20985709,0.09906960,-0.01917476
1691768151798361,0.22026655,-0.04309563,9.77791977,-0.22796659,0.09693906,-0.02556635
1691768151800483,-0.11971009,-0.21068975,10.05564690,-0.26631612,0.12570120,-0.04048005
1691768151802506,-0.09576806,-0.08140286,9.91199493,-0.27057716,0.12676647,-0.03408846
1691768151804373,-0.14365210,-0.18674773,10.08437729,-0.28016454,0.15872440,-0.03515373
1691768151806348,-0.14844051,-0.18195933,10.07958889,-0.28975192,0.17044231,-0.03621899
1691768151808403,0.18674773,0.22984336,9.83538055,-0.29614350,0.17789917,-0.03834952
1691768151810369,-0.01436521,0.00478840,10.12268448,-0.29294771,0.18748654,-0.02769688
1691768151812362,-0.16280572,0.00957681,9.98860931,-0.30146983,0.22157501,-0.03728426
1691768151814389,0.08619126,0.13886370,9.89762974,-0.29507825,0.21198763,-0.03621899
1691768151816367,-0.24899697,-0.23942018,10.15620327,-0.30999196,0.18748654,-0.03941479
1691768151818392,0.00000000,0.05746084,9.89284134,-0.31425300,0.18642128,-0.03834952
1691768151820364,0.07182605,-0.04788403,10.09874249,-0.30786142,0.16618125,-0.03834952
1691768151822373,0.00478840,0.01915361,10.07958889,-0.31212249,0.13848437,-0.03089267
1691768151824387,0.24420857,0.25378537,10.03649330,-0.32170987,0.13209279,-0.02982740
1691768151826401,-0.04788403,-0.05267244,10.26154804,-0.33023196,0.12463594,-0.02769688
1691768151828390,0.07182605,0.18195933,10.07958889,-0.33555830,0.12250541,-0.02450108
1691768151830365,0.01915361,0.09097967,10.20887566,-0.33768883,0.11824435,-0.01917476
1691768151832363,-0.03351882,0.00000000,10.22802925,-0.31957933,0.10226539,-0.01810949
1691768151834466,0.22984336,0.23463176,10.15141487,-0.31638354,0.11291803,-0.02982740
1691768151836350,0.05267244,0.08140286,10.34774017,-0.30146983,0.11930962,-0.01917476
1691768151838360,0.18674773,0.29209262,10.17056847,-0.29933929,0.10865697,-0.02769688
1691768151840367,0.11971009,0.23463176,10.24718285,-0.31105721,0.11611383,-0.02130529
1691768151842482,-0.06703765,0.11492168,10.27591324,-0.30999196,0.11185277,-0.02024002
1691768151844404,0.11492168,0.17238252,10.16099167,-0.31212249,0.11291803,-0.01278317
1691768151846347,-0.02873042,-0.01436521,10.33816338,-0.33342776,0.10333065,-0.01917476
1691768151848364,0.13886370,0.05746084,10.24239445,-0.35366780,0.09054748,-0.01491370
1691768151850434,0.13886370,0.03830723,10.30943298,-0.38562572,0.08628642,-0.02450108
1691768151852401,0.14365210,-0.00957681,10.40041256,-0.38988680,0.07776430,-0.03195793
1691768151854374,0.20111294,0.11492168,10.30943298,-0.40586576,0.05965481,-0.03195793
1691768151856342,0.00000000,0.00000000,10.40041256,-0.39734364,0.04687164,-0.03515373
1691768151858436,0.11492168,0.05746084,10.27591324,-0.39201730,0.04580637,-0.03515373
1691768151860546,0.06703765,0.09097967,10.35731697,-0.36218992,0.03408846,-0.03728426
1691768151862375,0.09097967,0.12928689,10.29506683,-0.34514567,0.02769688,-0.02024002
1691768151864429,0.20111294,0.19632454,10.36210537,-0.33555830,0.02237055,-0.01597897
1691768151866427,0.00478840,0.18195933,10.41956615,-0.31851408,0.02024002,-0.02024002
1691768151868422,0.09097967,0.20111294,10.25675964,-0.30146983,0.01597897,-0.00958738
1691768151870367,-0.03351882,0.13886370,10.33337498,-0.30253509,0.00852212,0.00000000
1691768151872446,0.06224924,0.07182605,10.32379818,-0.31957933,0.00213053,-0.00106526
1691768151874414,0.09576806,0.07661445,10.31900978,-0.34088463,0.00319579,-0.00213053
1691768151876390,-0.05267244,0.06703765,10.40998936,-0.36218992,-0.00106526,0.01384844
1691768151878401,0.14365210,0.19632454,10.29985619,-0.37284255,-0.00852212,0.00852212
1691768151880383,-0.09576806,0.10534488,10.48660374,-0.39627838,-0.00106526,0.01810949
1691768151882392,0.07661445,0.06224924,10.40041256,-0.40480047,0.01065264,0.02343582
1691768151884518,0.01915361,0.00957681,10.29985619,-0.40586576,0.02556635,0.02663161
1691768151886425,-0.18195933,0.11971009,10.41477776,-0.38029939,0.02982740,0.02450108
1691768151888415,0.07661445,0.36391866,10.16099167,-0.33023196,0.02556635,0.01278317
1691768151890370,-0.12928689,0.43574470,10.19929886,-0.27057716,-0.00106526,-0.00106526
1691768151892454,0.08619126,0.50757074,9.91678333,-0.20666130,-0.00213053,0.00745685
1691768151894415,0.13886370,0.42137951,9.75397778,-0.13209279,-0.04793690,0.00213053
1691768151896371,-0.07661445,0.48841715,9.83538055,-0.08309063,-0.07030746,-0.00958738
1691768151898378,0.17238252,0.42137951,9.55286503,-0.03728426,-0.08202536,-0.00319579
1691768151900578,0.00478840,0.49799395,9.58159542,-0.00852212,-0.08628642,-0.00319579
1691768151902390,0.06224924,0.56024319,9.44752026,0.00213053,-0.09480853,-0.01278317
1691768151904490,0.15322891,0.45968673,9.24640656,-0.00958738,-0.08096009,-0.02343582
1691768151906370,-0.11971009,0.33518824,9.45230865,0.00106526,-0.05858954,0.01704423
1691768151908455,0.09576806,0.21547815,9.27513695,-0.01384844,-0.06391586,-0.00213053
1691768151910470,-0.11013328,0.10534488,9.43315506,-0.07137272,-0.02024002,0.01278317
1691768151912402,-0.28730419,-0.01915361,9.54807663,-0.09161274,-0.05006743,0.01065264
1691768151914498,0.02873042,0.00478840,9.31823349,-0.11930962,-0.03302320,0.00852212
1691768151916367,-0.31124622,-0.03830723,9.65820980,-0.13741912,-0.03834952,-0.02130529
1691768151918495,0.04309563,0.11971009,9.47146225,-0.14168017,-0.05965481,-0.02237055
1691768151920429,0.20590134,0.09097967,9.54328823,-0.12463594,-0.08309063,-0.00958738
1691768151922455,-0.12449849,0.10534488,9.72524738,-0.12783173,-0.08202536,-0.01917476
1691768151924386,0.26815060,0.24899697,9.47146225,-0.10972223,-0.08628642,0.00532632
1691768151926367,-0.04788403,0.10055647,9.78749657,-0.09906960,-0.09693906,0.01597897
1691768151928380,-0.15801731,0.18195933,9.77313137,-0.10652644,-0.07030746,0.02556635
1691768151930372,0.04309563,0.00478840,9.77791977,-0.09800433,-0.03195793,0.01384844
1691768151932475,-0.20111294,-0.03351882,10.14662647,-0.13635385,0.02450108,0.01597897
1691768151934446,-0.03830723,0.03830723,10.04607010,-0.17150757,0.05645901,0.02024002
1691768151936442,-0.25378537,-0.08619126,10.25197124,-0.20346551,0.11611383,0.01065264
1691768151938377,-0.28251579,0.18195933,10.38125896,-0.20772657,0.16298546,-0.00213053
1691768151940370,-0.10534488,0.00957681,10.35731697,-0.22796659,0.19281286,-0.01065264
1691768151942481,-0.22984336,0.11013328,10.55364132,-0.23542345,0.20346551,-0.01917476
1691768151944381,-0.06703765,0.14365210,10.47702694,-0.21837921,0.22264026,-0.01597897
1691768151946351,-0.13407530,0.00478840,10.51533413,-0.19707392,0.19068234,-0.01384844
1691768151948382,-0.20590134,0.34476504,10.54885292,-0.19387813,0.17576863,-0.00532632
1691768151950454,0.09576806,-0.07182605,10.48181534,-0.17789917,0.12996227,-0.02556635
1691768151952411,0.10055647,0.15322891,10.48181534,-0.15446334,0.07243798,-0.00532632
1691768151954396,0.24899697,0.44053310,10.30943298,-0.14274544,0.03302320,-0.00319579
1691768151956460,0.29688102,0.10534488,10.19451046,-0.08841695,-0.05645901,0.00958738
1691768151958463,0.32561144,0.45010993,9.98382092,-0.05219796,-0.14274544,0.02024002
1691768151960373,0.45968673,0.33518824,9.90720654,-0.03515373,-0.17150757,0.01278317
1691768151962419,0.36391866,0.40701428,9.85932255,0.02663161,-0.27057716,0.01065264
1691768151964383,0.55066639,0.29209262,9.75397778,0.08415589,-0.32277513,0.00426106
1691768151966293,0.45010993,0.19153613,9.67257500,0.09374327,-0.34727621,0.01065264
1691768151968565,0.32561144,0.51235914,9.61990261,0.15446334,-0.39201730,-0.00852212
1691768151970395,0.56024319,0.34955344,9.58638382,0.18961707,-0.38988680,0.01491370
1691768151972375,0.22984336,0.29688102,9.65342140,0.17363811,-0.38242993,-0.00106526
1691768151974641,0.25857377,0.44053310,9.58638382,0.18002969,-0.37710360,0.00532632
1691768151976388,0.01436521,0.07182605,9.62947941,0.12996227,-0.32490566,0.00106526
1691768151978395,-0.17238252,0.19632454,9.61032581,0.09906960,-0.29720879,-0.01278317
1691768151980492,0.04788403,0.06703765,9.56244183,0.08522116,-0.29081720,0.01065264
1691768151982418,-0.22505496,-0.04309563,9.65342140,0.07776430,-0.22157501,0.01278317
1691768151984441,-0.10055647,0.13407530,9.67257500,0.08628642,-0.21518342,0.01810949
1691768151986392,-0.21068975,-0.05267244,9.72524738,0.06072007,-0.18109496,-0.00319579
1691768151988382,-0.34955344,-0.02394202,9.75397778,0.05752428,-0.14807175,0.00319579
1691768151990461,-0.11013328,-0.02394202,9.77313137,0.07456851,-0.14594123,0.00958738
1691768151992443,-0.35434186,-0.04309563,9.92157173,0.08522116,-0.11611383,0.00958738
1691768151994451,0.03830723,0.21547815,9.85932255,0.08628642,-0.10226539,0.01704423
1691768151996387,-0.10534488,0.05267244,9.94072533,0.07989483,-0.07563377,0.01704423
1691768151998383,-0.19153613,0.11492168,9.93114853,0.07776430,-0.05326322,0.01597897
1691768152000391,0.12449849,0.17717093,9.89284134,0.05752428,-0.04048005,0.02130529
1691768152002555,-0.36391866,-0.05746084,10.11789608,0.04687164,-0.02024002,0.04261058
1691768152004400,0.20111294,0.13886370,9.92157173,0.04474111,-0.02237055,0.02663161
1691768152006359,-0.09097967,0.05267244,10.01733971,0.04474111,-0.01065264,0.01491370
1691768152008394,-0.26815060,-0.00957681,10.14662647,0.03834952,-0.02663161,0.02769688
1691768152010494,0.17238252,0.10055647,10.00776291,0.03089267,-0.02982740,0.02769688
1691768152012425,-0.11971009,-0.00478840,10.21845245,0.03089267,-0.03941479,0.00852212
1691768152014398,0.11013328,0.10534488,10.15620327,0.02556635,-0.04048005,0.01810949
1691768152016435,0.17717093,0.11492168,10.23760605,0.01917476,-0.04900216,0.03941479
1691768152018442,-0.13886370,-0.03351882,10.40041256,0.00319579,-0.05326322,0.02237055
1691768152020429,0.14844051,0.07182605,10.31422138,-0.00426106,-0.05539375,0.01917476
1691768152022400,-0.09097967,-0.12449849,10.55842972,-0.03515373,-0.07030746,0.03089267
1691768152024621,0.07182605,-0.10534488,10.59673691,-0.05965481,-0.07137272,0.03408846
1691768152026407,-0.11492168,-0.18674773,10.65898609,-0.08841695,-0.06072007,0.02237055
1691768152028420,-0.07182605,0.05746084,10.69250488,-0.09267800,-0.05858954,0.02343582
1691768152030460,0.16759412,0.27772740,10.44829655,-0.07456851,-0.04687164,0.04048005
1691768152032568,-0.14844051,0.00478840,10.51533413,-0.02450108,-0.04474111,0.06924219
1691768152034521,0.15322891,0.44532153,10.25675964,0.01384844,0.00000000,0.05539375
1691768152036391,-0.14844051,0.19153613,10.29985619,0.07882957,0.00958738,0.06817693
1691768152038418,-0.12928689,0.20111294,10.33816338,0.10439591,0.01597897,0.05113269
1691768152040375,0.10055647,0.40701428,10.13226128,0.12676647,0.02663161,0.05645901
1691768152042374,-0.14844051,0.21547815,10.22324085,0.14700650,0.06604639,0.03941479
1691768152044459,-0.22026655,0.36870706,10.14662647,0.15446334,0.07776430,0.05219796
1691768152046358,-0.10534488,0.16280572,9.91199493,0.16937704,0.08841695,0.03302320
1691768152048391,-0.32082301,0.07661445,10.09395409,0.15872440,0.09587380,0.05752428
1691768152050396,0.02394202,0.07182605,10.01255131,0.13954964,0.07563377,0.04793690
1691768152052569,0.00478840,-0.05267244,10.01733971,0.10013486,0.08415589,0.04580637
1691768152054384,-0.08140286,0.11013328,10.11310768,0.07776430,0.07137272,0.04580637
1691768152056413,0.16280572,0.13886370,9.94072533,0.04793690,0.06604639,0.03621899
1691768152058479,-0.11013328,0.00000000,10.09395409,0.03728426,0.06924219,0.04367584
1691768152060430,-0.02873042,0.10534488,10.01255131,0.02769688,0.07456851,0.04580637
1691768152062422,0.01915361,-0.05746084,9.90241814,0.03728426,0.05752428,0.05432849
1691768152064385,-0.12928689,0.05267244,10.07958889,0.04580637,0.07030746,0.04154531
1691768152066375,0.08140286,0.05267244,9.99818611,0.06285060,0.07882957,0.03195793
1691768152068468,-0.04309563,0.10055647,10.07001209,0.06498113,0.06072007,0.01491370
1691768152070433,-0.01436521,0.21547815,10.10831928,0.05645901,0.07456851,0.01278317
1691768152072435,0.08619126,-0.06703765,9.98382092,0.05432849,0.08202536,0.01278317
1691768152074569,-0.01915361,0.23942018,10.02691650,0.05326322,0.09054748,0.01278317
1691768152076420,0.09097967,-0.08140286,9.90720654,0.05006743,0.10652644,0.02237055
1691768152078328,-0.11013328,0.01915361,9.89762974,0.05326322,0.11930962,0.03089267
1691768152080397,-0.05267244,0.29209262,9.90720654,0.06711166,0.13954964,0.03302320
1691768152082400,-0.01915361,-0.21547815,9.89284134,0.05645901,0.13848437,0.04474111
1691768152084422,-0.16280572,0.02394202,9.89762974,0.02769688,0.14381070,0.04687164
1691768152086467,0.10055647,0.00000000,9.89284134,0.00852212,0.12783173,0.05219796
1691768152088535,-0.05267244,-0.22026655,9.94072533,0.00532632,0.10865697,0.04261058
1691768152090378,0.16759412,0.31124622,9.81143856,-0.01810949,0.09161274,0.03941479
1691768152092426,0.12449849,-0.00478840,9.80186176,-0.00426106,0.06711166,0.02130529
1691768152094434,-0.06224924,0.18195933,9.72045898,0.03302320,0.04687164,0.03941479
1691768152096399,0.22505496,0.36870706,9.61990261,0.05006743,0.03941479,0.04900216
1691768152098399,-0.04309563,-0.08619126,9.74440098,0.07882957,0.03941479,0.05326322
1691768152100512,0.09576806,0.33039984,9.62469101,0.12996227,0.04793690,0.04367584
1691768152102452,0.10534488,0.19632454,9.65342140,0.15446334,0.05326322,0.03089267
1691768152104375,-0.06224924,0.18674773,9.71088219,0.16937704,0.08628642,-0.00106526
1691768152106373,0.21547815,0.29209262,9.56723022,0.19281286,0.10439591,0.00213053
1691768152108428,-0.11492168,-0.08619126,9.73482418,0.18748654,0.12889700,-0.00106526
1691768152110470,-0.11013328,0.27293900,9.71088219,0.16192019,0.13635385,0.00958738
1691768152112421,-0.03351882,0.06224924,9.77791977,0.14381070,0.14061491,0.02343582
1691768152114430,-0.34955344,-0.12928689,9.98860931,0.10333065,0.14807175,0.05645901
1691768152116390,0.08140286,0.05746084,9.79228497,0.06924219,0.13635385,0.03089267
1691768152118469,-0.05746084,-0.20111294,9.99339771,0.02982740,0.14807175,0.02982740
1691768152120443,0.01436521,-0.00478840,9.95509052,0.01810949,0.13422331,0.04261058
1691768152122411,0.32082301,0.12928689,9.81622696,0.01065264,0.12676647,0.02876214
1691768152124375,-0.08619126,0.00478840,10.02212811,0.04261058,0.09480853,0.02343582
1691768152126429,0.16280572,0.30645782,9.73003578,0.08096009,0.10652644,0.04367584
1691768152128417,0.04788403,0.04309563,9.80186176,0.10333065,0.08522116,0.05965481
1691768152130480,-0.11971009,0.08619126,9.81143856,0.11611383,0.09800433,0.03621899
1691768152132404,0.18674773,0.18195933,9.67736340,0.14487596,0.12463594,0.04580637
1691768152134424,-0.06703765,0.08140286,9.92636013,0.15659387,0.13528858,0.02556635
1691768152136368,0.19153613,0.33997664,9.75397778,0.14913702,0.12144014,0.04048005
1691768152138398,0.15322891,0.12928689,9.76834297,0.15233281,0.13102752,0.01917476
1691768152140405,-0.03830723,0.12928689,9.87847614,0.15552860,0.11824435,0.03941479
1691768152142417,0.23463176,0.24420857,9.75876617,0.14594123,0.09800433,0.02556635
1691768152144506,-0.12449849,-0.10534488,9.99818611,0.13848437,0.07989483,0.03621899
1691768152146382,0.02873042,0.03351882,9.91678333,0.12250541,0.05752428,0.03195793
1691768152148455,0.18674773,-0.06224924,9.94551373,0.10865697,0.04793690,0.01704423
1691768152150418,-0.04309563,0.00957681,10.11789608,0.08841695,0.03515373,0.01065264
1691768152152496,0.34955344,0.18674773,9.96945572,0.05752428,0.01917476,-0.00106526
1691768152154420,0.13886370,-0.15801731,10.10831928,0.03621899,0.01917476,-0.00106526
1691768152156358,0.16280572,0.04309563,10.16099167,0.02663161,0.02450108,-0.00532632
1691768152158377,0.13886370,-0.11492168,10.20887566,-0.00106526,0.00958738,0.00852212
1691768152160426,-0.04788403,-0.21547815,10.38125896,-0.02769688,0.00319579,0.01597897
1691768152162504,0.16759412,-0.08619126,10.31422138,-0.05219796,0.00532632,0.01278317
1691768152164396,0.01436521,-0.26815060,10.37168217,-0.08309063,-0.00213053,0.02343582
1691768152166360,0.17238252,-0.00957681,10.51533413,-0.11611383,-0.00852212,0.02556635
1691768152168396,0.13886370,-0.17717093,10.51054573,-0.13209279,-0.03302320,0.01491370
1691768152170437,0.15801731,-0.11492168,10.45308495,-0.16831177,-0.03195793,0.01171791
1691768152172412,0.13407530,0.04309563,10.52491093,-0.17470337,-0.05113269,0.00532632
1691768152174414,0.03830723,-0.12928689,10.47223854,-0.16405073,-0.07563377,0.02876214
1691768152176379,0.22505496,0.23942018,10.45308495,-0.15978967,-0.07243798,0.03302320
1691768152178411,0.07182605,-0.10534488,10.52491093,-0.13741912,-0.09587380,0.04367584
1691768152180415,0.21068975,0.11971009,10.34774017,-0.10652644,-0.09480853,0.04580637
1691768152182381,0.06703765,0.24899697,10.46745014,-0.09800433,-0.07882957,0.04900216
1691768152184504,-0.00478840,0.02873042,10.42435455,-0.09587380,-0.05645901,0.03515373
1691768152186408,0.19153613,0.32561144,10.33337498,-0.05645901,-0.04367584,0.03515373
1691768152188401,-0.07661445,-0.00478840,10.46266174,-0.02982740,-0.00958738,0.02663161
1691768152190419,0.12928689,0.21547815,10.27112484,-0.00958738,-0.00958738,0.01704423
1691768152192390,0.03351882,0.30166942,10.34295177,0.01065264,-0.00745685,0.02556635
1691768152194459,-0.17717093,0.03351882,10.19929886,0.02237055,-0.00319579,0.01384844
1691768152196449,0.19632454,0.47405192,10.01733971,0.04900216,-0.02130529,0.01917476
1691768152198387,-0.16759412,0.07661445,10.21366405,0.10439591,-0.03089267,0.00958738
1691768152200386,0.15801731,0.30166942,9.91199493,0.13528858,-0.02450108,0.02343582
1691768152202430,0.10055647,0.43574470,9.97424412,0.15872440,-0.03834952,-0.00106526
1691768152204435,-0.10055647,0.13407530,9.98382092,0.18322548,-0.03621899,0.01704423
1691768152206364,0.24420857,0.55545479,9.77791977,0.20133498,-0.02663161,0.00852212
1691768152208380,-0.17717093,0.12928689,9.98382092,0.20985709,-0.01278317,0.01597897
1691768152210421,0.11492168,0.21068975,9.68215179,0.19707392,-0.01704423,0.00745685
1691768152212433,0.04788403,0.17717093,9.82101536,0.18216021,-0.00639159,0.02024002
1691768152214398,-0.26815060,-0.26336220,9.80186176,0.15659387,0.00213053,0.02343582
1691768152216365,0.11971009,0.20590134,9.61990261,0.14700650,-0.00106526,0.02982740
1691768152218412,0.15801731,0.25378537,9.75876617,0.13315806,0.00106526,0.03941479
1691768152220472,0.03830723,0.00000000,9.66299820,0.09693906,-0.02450108,0.04580637
1691768152222408,0.16280572,0.07182605,9.85932255,0.04048005,-0.00745685,0.04261058
1691768152224472,-0.05746084,-0.27772740,10.04128170,0.00852212,-0.02876214,0.05752428
1691768152226421,0.30645782,0.11013328,9.77791977,-0.05113269,-0.04793690,0.03515373
1691768152228487,0.00478840,-0.30645782,10.18493366,-0.07456851,-0.07350325,0.03728426
1691768152230473,0.13407530,-0.25857377,10.04607010,-0.10759171,-0.08735169,0.02450108
1691768152232377,0.14844051,-0.14365210,10.09395409,-0.13635385,-0.11078750,0.02024002
1691768152234449,0.11492168,-0.16759412,10.21845245,-0.14913702,-0.13848437,0.01384844
1691768152236400,0.18674773,0.01436521,9.95509052,-0.13741912,-0.15126754,0.01704423
1691768152238416,0.20111294,0.06703765,9.91199493,-0.10972223,-0.18109496,0.03515373
1691768152240394,0.10055647,-0.01915361,9.96945572,-0.10759171,-0.17576863,0.03089267
1691768152242550,0.16280572,0.11013328,9.79707336,-0.06817693,-0.16937704,0.04793690
1691768152244431,0.06703765,0.17717093,9.73961258,-0.00852212,-0.12783173,0.04048005
1691768152246370,0.04309563,0.22984336,9.69651699,0.01384844,-0.12144014,0.03728426
1691768152248394,0.06224924,0.27772740,9.67736340,0.03195793,-0.09906960,0.03408846
1691768152250386,-0.07182605,0.24899697,9.71088219,0.06711166,-0.08309063,0.02237055
1691768152252478,-0.01436521,0.39743748,9.62469101,0.09267800,-0.07350325,0.01704423
1691768152254399,-0.09576806,0.13886370,9.73961258,0.08841695,-0.05006743,0.01810949
1691768152256387,-0.08140286,0.21068975,9.63905621,0.09800433,-0.04900216,0.02450108
1691768152258386,-0.05746084,0.24420857,9.76355457,0.08841695,-0.05645901,0.01597897
1691768152260386,-0.16759412,-0.06703765,9.81622696,0.07243798,-0.04154531,0.01384844
1691768152262492,0.01436521,0.06224924,9.71567059,0.02663161,-0.04900216,0.02769688
1691768152264434,-0.12449849,-0.14844051,9.88805294,0.00958738,-0.06285060,0.01491370
1691768152266366,0.13407530,-0.12928689,9.84016895,-0.02130529,-0.06711166,0.02130529
1691768152268426,0.16759412,0.03351882,9.94551373,-0.06498113,-0.08415589,-0.00213053
1691768152270465,-0.01915361,-0.19153613,10.10353088,-0.09480853,-0.09161274,0.01278317
1691768152272434,0.20111294,-0.23463176,9.93114853,-0.11078750,-0.10865697,0.00852212
1691768152274405,-0.16280572,-0.23463176,10.14183807,-0.12996227,-0.11930962,0.02663161
1691768152276389,0.07661445,-0.13886370,9.92636013,-0.12996227,-0.11291803,0.02663161
1691768152278437,0.01436521,0.07661445,9.89762974,-0.08948221,-0.11504856,0.02450108
1691768152280407,0.04788403,0.07182605,9.68215179,-0.05432849,-0.07669904,0.01704423
1691768152282416,0.26336220,0.26336220,9.62947941,-0.02450108,-0.07882957,0.01491370
1691768152284405,-0.09097967,0.34955344,9.90720654,0.00639159,-0.04474111,0.01597897
1691768152286388,-0.03351882,0.20111294,9.58638382,0.04687164,-0.03408846,0.01278317
1691768152288377,-0.04309563,0.22505496,9.61032581,0.07137272,-0.00852212,0.01278317
1691768152290358,-0.01436521,0.35913026,9.54807663,0.08415589,0.00213053,0.02450108
1691768152292384,0.10534488,0.32561144,9.54328823,0.08735169,0.02237055,0.04154531
1691768152294416,-0.24420857,0.27293900,9.74440098,0.08522116,0.02237055,0.03302320
1691768152296324,-0.05746084,0.14844051,9.54328823,0.06391586,-0.00532632,0.03195793
1691768152298396,0.22984336,0.29688102,9.56244183,0.02982740,-0.01171791,0.04900216
1691768152300403,-0.21547815,0.11013328,9.85453415,0.02130529,-0.02556635,0.03195793
1691768152302443,0.30166942,-0.00478840,9.48582745,-0.00639159,-0.02769688,0.01810949
1691768152304423,-0.00957681,0.07661445,9.89762974,-0.01491370,-0.05219796,0.01810949
1691768152306362,-0.08140286,-0.12928689,9.81143856,-0.03621899,-0.05752428,0.00745685
1691768152308406,0.20590134,-0.02394202,9.64863300,-0.04793690,-0.06391586,-0.00852212
1691768152310405,-0.20111294,0.01915361,10.00776291,-0.05858954,-0.06285060,-0.00532632
1691768152312415,0.17717093,0.01436521,9.73961258,-0.06817693,-0.08735169,-0.00532632
1691768152314412,-0.11971009,0.02873042,10.11789608,-0.09054748,-0.08415589,-0.00532632
1691768152316361,0.04788403,0.05267244,10.04128170,-0.09161274,-0.07350325,-0.00106526
1691768152318413,0.19632454,-0.03830723,9.93593693,-0.07350325,-0.07776430,0.01384844
1691768152320480,0.02394202,0.13407530,10.16578007,-0.08735169,-0.07563377,0.00958738
1691768152322457,0.12928689,-0.09097967,10.06043530,-0.08735169,-0.06178534,0.00319579
1691768152324389,-0.07661445,0.13886370,10.16099167,-0.08415589,-0.06391586,0.00532632
1691768152326416,0.07661445,0.11013328,10.08916569,-0.08841695,-0.06604639,0.00639159
1691768152328425,-0.01436521,-0.07182605,10.20887566,-0.09693906,-0.04687164,0.00639159
1691768152330414,0.01436521,0.16759412,10.26633644,-0.11504856,-0.04367584,0.00532632
1691768152332440,-0.01915361,-0.23463176,10.30464458,-0.12463594,-0.05006743,0.01384844
1691768152334391,-0.08619126,0.02873042,10.41477776,-0.15446334,-0.06178534,0.01917476
1691768152336365,0.08140286,-0.07182605,10.40998936,-0.19281286,-0.06817693,0.03089267
1691768152338437,0.03830723,-0.19632454,10.50096893,-0.23861924,-0.07882957,0.02556635
1691768152340409,0.13407530,0.07182605,10.53448772,-0.26738137,-0.07563377,0.02663161
1691768152342390,0.02394202,-0.17238252,10.57279491,-0.29401299,-0.06391586,0.03941479
1691768152344447,0.02873042,0.04788403,10.57758331,-0.30573088,-0.03515373,0.05006743
1691768152346425,-0.04309563,-0.01436521,10.54406452,-0.28016454,0.00106526,0.05113269
1691768152348418,-0.12449849,-0.03830723,10.63504410,-0.27483824,0.03302320,0.03515373
1691768152350386,-0.01915361,0.23942018,10.48181534,-0.24394555,0.06817693,0.03089267
1691768152352411,-0.13407530,0.06703765,10.53448772,-0.19920444,0.08735169,0.00319579
1691768152354643,-0.09576806,0.43574470,10.39083576,-0.15126754,0.08948221,0.01065264
1691768152356374,0.01915361,0.32082301,10.15141487,-0.09267800,0.05432849,-0.01810949
1691768152358441,-0.02394202,0.24899697,10.11789608,-0.05858954,0.02876214,-0.00958738
1691768152360421,0.13886370,0.37349546,9.79707336,-0.00532632,-0.02024002,0.01171791
1691768152362428,0.12928689,0.37828386,9.78270817,0.04154531,-0.06285060,0.00852212
1691768152364448,0.13886370,0.54108959,9.78270817,0.07563377,-0.10120012,-0.01491370
1691768152366374,0.34955344,0.39743748,9.54807663,0.08202536,-0.12144014,-0.01171791
1691768152368488,0.14844051,0.28251579,9.73961258,0.08415589,-0.13741912,-0.02876214
1691768152370457,0.21547815,0.17238252,9.75876617,0.05326322,-0.12783173,-0.04687164
1691768152372439,0.14365210,0.08140286,9.89284134,0.00213053,-0.10333065,-0.01491370
1691768152374391,0.02394202,0.13407530,9.93114853,-0.02556635,-0.09480853,-0.01065264
1691768152376376,0.26336220,0.14365210,9.61990261,-0.02663161,-0.09480853,-0.00958738
1691768152378418,0.03351882,0.14844051,9.78749657,-0.00532632,-0.10759171,0.02876214
1691768152380447,0.20590134,0.21068975,9.54807663,0.02556635,-0.09161274,0.02237055
1691768152382393,0.17238252,0.22984336,9.40921307,0.07137272,-0.11078750,0.03621899
1691768152384384,-0.11971009,0.40222588,9.45709705,0.10333065,-0.09800433,0.02663161
1691768152386386,0.13407530,0.23463176,9.09796619,0.13954964,-0.09587380,0.02130529
1691768152388422,-0.12449849,0.35913026,9.35175228,0.17363811,-0.08096009,-0.01065264
1691768152390443,-0.06224924,0.35913026,9.29907894,0.16618125,-0.04580637,0.00319579
1691768152392386,0.06224924,0.21068975,9.25119495,0.15765914,-0.01278317,-0.00745685
1691768152394418,-0.22505496,0.24899697,9.59117222,0.14807175,0.03515373,0.00319579
1691768152396404,0.01915361,-0.01436521,9.35175228,0.14061491,0.06285060,-0.00426106
1691768152398427,-0.12449849,0.16280572,9.65342140,0.08841695,0.14381070,-0.00213053
1691768152400390,-0.21547815,-0.08619126,9.75876617,0.04474111,0.12570120,0.01384844
1691768152402381,0.06703765,-0.14844051,9.59117222,-0.03408846,0.14381070,0.02024002
1691768152404458,-0.17238252,-0.10534488,9.94551373,-0.08948221,0.09906960,0.00745685
1691768152406379,0.12449849,-0.16280572,9.79228497,-0.10546118,0.06498113,0.00532632
1691768152408389,0.07182605,0.07182605,9.73003578,-0.11930962,-0.00745685,-0.00639159
1691768152410398,0.05746084,0.16759412,9.67736340,-0.08628642,-0.05006743,0.00106526
1691768152412434,0.34955344,0.09576806,9.48103905,-0.03408846,-0.09161274,-0.04048005
1691768152414407,0.27772740,0.30166942,9.55765343,0.07882957,-0.20453078,-0.01810949
1691768152416372,0.33039984,0.48362875,9.35175228,0.10972223,-0.19707392,0.00213053
1691768152418409,0.26336220,0.29688102,9.21767616,0.19387813,-0.20026971,0.02450108
1691768152420430,0.16280572,0.51235914,9.22246456,0.26525083,-0.20772657,-0.01171791
1691768152422429,0.16759412,0.45489833,9.09796619,0.30573088,-0.22903186,-0.00213053
1691768152424383,-0.07661445,0.41659111,9.18415737,0.29507825,-0.15552860,-0.00958738
1691768152426363,0.09576806,0.59376204,9.16500378,0.31425300,-0.10865697,-0.00532632
1691768152428407,0.12449849,0.32561144,9.09796619,0.33342776,-0.10972223,-0.00213053
1691768152430539,-0.11971009,0.31124622,9.27992535,0.26631612,-0.04154531,0.00000000
1691768152432395,0.05267244,0.05746084,9.33259869,0.25033715,-0.02024002,0.00852212
1691768152434377,-0.14365210,-0.05746084,9.39005947,0.20240024,-0.00106526,0.02130529
1691768152436371,-0.19632454,0.00478840,9.39963627,0.12889700,-0.00213053,-0.00213053
1691768152438454,-0.10534488,-0.16759412,9.38048267,0.08522116,0.01384844,0.00532632
1691768152440405,-0.10055647,-0.15322891,9.60074902,0.00000000,-0.01384844,-0.00106526
1691768152442381,0.07182605,-0.12928689,9.54328823,-0.01597897,0.01597897,0.00319579
1691768152444391,-0.09576806,-0.17238252,9.67736340,-0.05645901,0.00745685,-0.00852212
1691768152446409,-0.06224924,-0.12449849,9.73003578,-0.07030746,-0.02237055,0.00106526
1691768152448423,0.03351882,-0.22505496,9.77313137,-0.09161274,-0.00213053,0.03195793
1691768152450391,-0.12928689,-0.28730419,9.97424412,-0.10226539,-0.02982740,0.01597897
1691768152452404,0.12928689,-0.06224924,9.94072533,-0.13528858,-0.04367584,0.02450108
1691768152454430,0.19632454,-0.00478840,10.01255131,-0.13741912,-0.05113269,0.02237055
1691768152456392,-0.14365210,-0.14365210,10.11789608,-0.11398330,-0.05432849,0.01917476
1691768152458380,0.26815060,0.22505496,9.83059216,-0.08628642,-0.05645901,0.02663161
1691768152460407,-0.10055647,0.05267244,10.07958889,-0.04900216,-0.06391586,0.03408846
1691768152462435,0.04788403,0.19632454,9.95509052,-0.01065264,-0.06604639,0.03834952
1691768152464429,0.33039984,0.31603462,9.80186176,0.03834952,-0.06604639,0.03089267
1691768152466379,-0.08140286,0.17717093,10.02691650,0.06285060,-0.06711166,0.02024002
1691768152468394,0.16759412,0.32082301,9.81622696,0.07563377,-0.07350325,0.02130529
1691768152470400,0.01436521,0.05746084,9.91199493,0.06924219,-0.05645901,0.01065264
1691768152472438,-0.01915361,0.13886370,9.98382092,0.05326322,-0.07030746,0.01491370
1691768152474584,0.27293900,0.27772740,9.90241814,0.02343582,-0.05965481,-0.00639159
1691768152476368,-0.10055647,-0.05746084,10.10353088,-0.02130529,-0.05752428,-0.01065264
1691768152478383,0.15801731,0.19632454,10.02691650,-0.04048005,-0.04580637,-0.01704423
1691768152480441,-0.11492168,-0.03351882,10.26154804,-0.06178534,-0.04261058,0.02237055
1691768152482409,-0.06224924,0.00478840,10.21366405,-0.06498113,-0.02769688,0.01171791
1691768152484387,0.15322891,0.07182605,10.10353088,-0.06817693,-0.01704423,0.03515373
1691768152486364,-0.14844051,-0.10534488,10.34295177,-0.05752428,-0.00319579,0.02982740
1691768152488464,0.18674773,0.17238252,10.22324085,-0.07137272,0.00852212,0.02876214
1691768152490419,-0.01436521,-0.04788403,10.27591324,-0.07989483,0.00106526,0.01384844
1691768152492418,-0.02394202,0.17238252,10.36689377,-0.10226539,0.00958738,0.03302320
1691768152494413,0.20590134,0.11013328,10.35731697,-0.10013486,0.00639159,0.03515373
1691768152496413,-0.00478840,-0.04788403,10.47702694,-0.10013486,0.00745685,0.02556635
1691768152498409,0.07182605,0.22984336,10.46266174,-0.11717909,-0.00852212,0.02237055
1691768152500431,-0.02873042,-0.11971009,10.44350815,-0.11398330,-0.02130529,0.01171791
1691768152502413,0.01915361,0.09576806,10.57279491,-0.10546118,-0.01704423,0.01597897
1691768152504483,0.22984336,0.01915361,10.57758331,-0.08735169,-0.03089267,0.02450108
1691768152506403,0.06703765,0.06703765,10.59673691,-0.10759171,-0.02343582,0.02024002
1691768152508389,0.14844051,0.38307226,10.57279491,-0.10546118,-0.01171791,0.02024002
1691768152510389,0.06703765,-0.05267244,10.57279491,-0.11824435,0.01171791,0.00319579
1691768152512442,0.05267244,0.16759412,10.59673691,-0.12996227,0.02130529,0.01171791
1691768152514463,0.06224924,-0.10055647,10.59194851,-0.15659387,0.02450108,0.00213053
1691768152516372,-0.03351882,-0.03351882,10.49139214,-0.13528858,0.01704423,0.00319579
1691768152518385,0.16759412,0.39264908,10.46745014,-0.13528858,0.01384844,-0.00745685
1691768152520421,0.02873042,-0.00957681,10.42435455,-0.15978967,-0.01597897,0.00639159
1691768152522426,0.21068975,0.31124622,10.44350815,-0.15552860,-0.03302320,0.00639159
1691768152524427,0.01915361,-0.14844051,10.56321812,-0.13422331,-0.03515373,0.02024002
1691768152526400,0.08619126,0.00000000,10.49139214,-0.16937704,-0.04154531,0.00639159
1691768152528401,0.29688102,0.31124622,10.61589050,-0.18322548,-0.05965481,0.01917476
1691768152530420,0.04309563,-0.30645782,10.67335129,-0.19387813,-0.06711166,0.02130529
1691768152532415,0.31124622,0.34955344,10.61110210,-0.21198763,-0.07882957,0.03515373
1691768152534460,-0.00478840,-0.14365210,10.81221485,-0.24181503,-0.09054748,0.03941479
1691768152536390,0.12928689,-0.08140286,10.74038887,-0.24714135,-0.09267800,0.04154531
1691768152538458,0.10055647,0.17717093,10.79306126,-0.23861924,-0.09374327,0.03941479
1691768152540420,-0.00957681,-0.16759412,10.74517727,-0.24181503,-0.07563377,0.04474111
1691768152542397,0.32082301,0.49320555,10.56800652,-0.19494340,-0.08309063,0.06072007
1691768152544437,-0.09097967,0.01915361,10.69729328,-0.13848437,-0.04900216,0.05965481
1691768152546429,0.06224924,0.34955344,10.37168217,-0.08735169,-0.01491370,0.04687164
1691768152548406,0.09097967,0.49320555,10.35252857,-0.04474111,0.00532632,0.06285060
1691768152550407,-0.04309563,0.43574470,10.10353088,0.01171791,0.02237055,0.06498113
1691768152552385,0.17238252,0.72783732,10.04128170,0.04474111,0.02450108,0.04900216
1691768152554463,-0.26336220,0.26336220,10.18493366,0.07776430,0.03515373,0.04580637
1691768152556452,0.20590134,0.68953007,9.87368774,0.08309063,0.02876214,0.06711166
1691768152558385,0.00957681,0.47405192,9.97903252,0.08309063,0.02237055,0.05752428
1691768152560395,-0.26815060,-0.12928689,10.09395409,0.07456851,0.00958738,0.03408846
1691768152562414,0.20111294,0.41659111,9.87847614,0.03941479,0.03834952,0.03728426
1691768152564394,-0.13407530,-0.11492168,10.22802925,0.00958738,0.03302320,0.04793690
1691768152566401,0.09097967,0.16280572,10.10353088,-0.00745685,0.03408846,0.02343582
1691768152568393,0.28730419,0.17717093,10.22802925,-0.04900216,0.06072007,0.01917476
1691768152570425,-0.10534488,-0.18195933,10.34295177,-0.06924219,0.03408846,0.00639159
1691768152572537,0.20590134,0.33039984,10.03170490,-0.05326322,0.02876214,0.01810949
1691768152574416,-0.09576806,-0.07661445,10.17535686,-0.02769688,0.02450108,-0.00319579
1691768152576434,0.00000000,0.20111294,9.97903252,0.00319579,0.02130529,0.02343582
1691768152578402,0.31124622,0.28730419,9.89284134,0.03941479,-0.01171791,0.03728426
1691768152580464,0.04788403,0.01915361,10.00776291,0.05752428,0.01491370,0.02769688
1691768152582414,0.26815060,0.49320555,9.69651699,0.07989483,-0.01278317,0.04793690
1691768152584382,0.13407530,0.11492168,9.82101536,0.11291803,-0.03621899,0.03302320
1691768152586368,-0.06703765,0.30166942,9.74440098,0.12463594,-0.03834952,0.05432849
1691768152588438,0.22984336,0.28730419,9.64384460,0.12144014,-0.06178534,0.04154531
1691768152590544,0.05267244,-0.09097967,9.79228497,0.12889700,-0.09480853,0.03621899
1691768152592398,0.27772740,0.24899697,9.62947941,0.10865697,-0.09374327,0.02876214
1691768152594452,0.23463176,-0.00478840,9.73482418,0.07882957,-0.10333065,0.01917476
1691768152596396,0.04309563,0.16759412,9.77791977,0.06178534,-0.11398330,0.00319579
1691768152598446,0.32561144,0.29209262,9.68215179,0.04261058,-0.08628642,0.02556635
1691768152600385,-0.00957681,-0.05746084,9.86889935,0.03728426,-0.07350325,0.03195793
1691768152602383,0.11013328,0.18674773,9.73961258,0.03195793,-0.04900216,0.03834952
1691768152604424,0.01915361,-0.05746084,9.71567059,0.02556635,-0.01704423,0.04367584
1691768152606388,-0.26336220,-0.09097967,9.83538055,0.02130529,-0.00106526,0.04261058
1691768152608477,0.03351882,0.15801731,9.68694019,0.01597897,0.00532632,0.02769688
1691768152610394,-0.10534488,-0.02873042,9.79228497,0.01278317,0.00000000,0.01704423
1691768152612427,0.08140286,0.16759412,9.73482418,-0.00852212,-0.02237055,0.00426106
1691768152614459,0.16759412,0.09576806,9.72045898,0.00745685,-0.05752428,0.00532632
1691768152616400,-0.02873042,0.02873042,9.77791977,-0.01810949,-0.07563377,0.01810949
1691768152618397,0.12928689,0.14844051,9.76834297,-0.03089267,-0.10546118,0.00852212
1691768152620420,-0.05267244,-0.07182605,9.79707336,-0.03515373,-0.11824435,0.00639159
1691768152622471,0.11013328,0.07182605,9.72045898,-0.04048005,-0.12570120,0.02343582
1691768152624456,0.10055647,0.13886370,9.85453415,-0.04261058,-0.12889700,0.02982740
1691768152626377,0.10534488,0.07661445,9.84974575,-0.02663161,-0.11291803,0.01171791
1691768152628390,0.26336220,0.29688102,9.89284134,-0.00639159,-0.07669904,0.01597897
1691768152630526,-0.03351882,0.04309563,10.07480049,-0.02876214,-0.02769688,-0.01171791
1691768152632406,0.11492168,0.17238252,9.98860931,-0.04261058,0.01917476,0.00106526
1691768152634407,-0.05267244,0.10055647,10.18493366,-0.07456851,0.04900216,0.01810949
1691768152636367,-0.27772740,-0.06703765,10.15620327,-0.05113269,0.05965481,0.01491370
1691768152638496,0.05746084,0.32082301,10.00297451,-0.04154531,0.07137272,0.01065264
1691768152640445,-0.38786069,-0.04788403,10.19929886,-0.01704423,0.04900216,0.02556635
1691768152642403,0.10534488,0.25378537,9.88805294,-0.02237055,0.02343582,0.01491370
1691768152644456,0.06224924,0.23463176,9.95987892,0.00319579,-0.01704423,-0.00532632
1691768152646396,-0.06703765,-0.03351882,9.86411095,0.01810949,-0.06924219,0.03302320
1691768152648456,0.40222588,0.33518824,9.69651699,0.00319579,-0.11291803,0.01704423
1691768152650399,-0.05267244,-0.02873042,10.02691650,0.00213053,-0.12144014,-0.00852212
1691768152652393,0.28251579,0.12449849,9.80665016,0.00426106,-0.13528858,0.00426106
1691768152654407,-0.04788403,-0.14844051,9.98382092,-0.02876214,-0.12783173,0.01065264
1691768152656426,0.22984336,-0.04309563,9.73482418,-0.07137272,-0.11824435,0.00958738
1691768152658461,0.05746084,-0.00478840,10.04128170,-0.09161274,-0.08309063,0.00532632
1691768152660414,-0.10534488,-0.17238252,10.09874249,-0.12996227,-0.04580637,0.02876214
1691768152662402,0.25857377,0.11492168,10.07480049,-0.15339808,-0.00532632,0.01810949
1691768152664442,-0.12928689,-0.18195933,10.47702694,-0.15339808,0.03089267,0.04154531
1691768152666392,0.05267244,0.10055647,10.15141487,-0.15233281,0.06711166,0.01917476
1691768152668411,0.01436521,0.16759412,10.35252857,-0.14381070,0.09480853,0.00958738
1691768152670399,-0.32082301,-0.06224924,10.39562416,-0.11717909,0.09161274,0.02556635
1691768152672456,0.14365210,0.23463176,10.10353088,-0.09374327,0.07030746,0.01491370
1691768152674485,-0.22984336,0.02394202,10.34295177,-0.06604639,0.02556635,-0.00319579
1691768152676373,0.00478840,0.32561144,9.90720654,-0.02769688,0.03195793,0.00426106
1691768152678396,0.21068975,0.45968673,9.90241814,0.05858954,-0.01597897,0.02450108
1691768152680414,-0.10055647,0.33039984,9.80665016,0.13209279,-0.06391586,0.01384844
1691768152682406,0.36391866,0.64643449,9.46667385,0.19281286,-0.06285060,0.00852212
1691768152684478,0.00478840,0.39743748,9.78749657,0.23861924,-0.09693906,-0.00106526
1691768152686374,0.20111294,0.53151280,9.44273186,0.26525083,-0.11611383,-0.00426106
1691768152688440,0.37349546,0.54108959,9.51934624,0.28868666,-0.11930962,0.00745685
1691768152690439,-0.02873042,0.28251579,9.67736340,0.29933929,-0.08415589,0.00958738
1691768152692408,0.43574470,0.53151280,9.47625065,0.29188246,-0.09374327,0.01278317
1691768152694398,-0.05746084,0.06224924,9.91678333,0.24394555,-0.03515373,-0.01810949
1691768152696371,-0.11971009,-0.02873042,9.77791977,0.18002969,-0.03834952,-0.01704423
1691768152698440,0.06703765,0.01436521,9.93114853,0.07243798,0.03408846,-0.01491370
1691768152700431,-0.34955344,-0.45968673,10.29506683,-0.01597897,0.02769688,0.00319579
1691768152702402,0.07661445,-0.19153613,10.10353088,-0.06285060,0.04474111,0.00639159
1691768152704421,-0.22984336,-0.37349546,10.42914295,-0.13315806,0.10013486,0.00532632
1691768152706420,-0.05267244,-0.39264908,10.42914295,-0.15978967,0.05965481,0.01491370
1691768152708419,-0.12449849,-0.10534488,10.48181534,-0.17896442,0.08415589,0.02556635
1691768152710406,-0.04788403,-0.26815060,10.48660374,-0.16937704,0.06178534,0.01384844
1691768152712417,0.18195933,0.17238252,10.37168217,-0.18216021,0.05645901,0.00532632
1691768152714436,0.04788403,-0.02394202,10.39562416,-0.13954964,-0.03302320,0.02876214
1691768152716409,0.15801731,0.05267244,10.15620327,-0.12037488,-0.07563377,0.02876214
1691768152718489,0.09097967,0.14844051,10.13704967,-0.08735169,-0.13315806,0.00852212
1691768152720398,0.27293900,0.14365210,9.96945572,-0.00958738,-0.22477080,0.03089267
1691768152722455,0.28730419,0.47884035,9.81622696,-0.02130529,-0.20879182,0.06178534
1691768152724480,0.19632454,0.26336220,9.82101536,0.02024002,-0.16085494,0.05645901
1691768152726373,0.26815060,0.25378537,9.64384460,0.07669904,-0.12676647,0.02556635
1691768152728402,-0.07661445,0.38786069,9.78270817,0.12037488,-0.09480853,0.04900216
1691768152730427,-0.16280572,0.17238252,9.77791977,0.12996227,-0.04261058,0.01917476
1691768152732527,-0.08619126,0.38786069,9.68694019,0.17470337,0.01384844,0.00319579
1691768152734426,-0.22505496,0.28730419,9.85453415,0.15339808,0.02343582,0.00852212
1691768152736312,-0.22026655,0.26815060,9.69651699,0.13209279,0.08735169,-0.00319579
1691768152738401,-0.34955344,0.03830723,9.83538055,0.16724652,0.09480853,0.02556635
1691768152740469,-0.22505496,0.09097967,9.80665016,0.17044231,0.11930962,0.00958738
1691768152742427,-0.01436521,0.30166942,9.73961258,0.16192019,0.14913702,0.02876214
1691768152744391,-0.15801731,0.06224924,9.88805294,0.14594123,0.11078750,0.01171791
1691768152746374,0.31124622,0.33518824,9.54807663,0.16831177,0.10546118,0.05219796
1691768152748409,0.11013328,0.30645782,9.61511421,0.16937704,0.07776430,0.03515373
1691768152750468,0.13407530,0.19153613,9.53849983,0.19600865,-0.02556635,0.03941479
1691768152752410,0.36391866,0.29209262,9.46188545,0.19281286,-0.06924219,0.04793690
1691768152754394,0.06703765,0.23463176,9.72045898,0.21305288,-0.10759171,0.00319579
1691768152756407,0.49320555,0.35434186,9.50976944,0.21092236,-0.11504856,-0.00319579
1691768152758424,0.49799395,0.25857377,9.61032581,0.18535601,-0.12037488,-0.00958738
1691768152760413,0.03351882,-0.03830723,9.68694019,0.16618125,-0.08415589,0.01278317
1691768152762418,0.30645782,0.09097967,9.61511421,0.18429075,-0.08096009,-0.02024002
1691768152764437,0.03351882,0.18195933,10.07001209,0.18216021,-0.03089267,-0.00319579
1691768152766408,-0.09097967,-0.09097967,9.96466732,0.11504856,-0.02876214,-0.00106526
1691768152768443,-0.12928689,-0.11492168,10.18014526,0.06498113,0.03302320,0.03408846
1691768152770401,-0.15322891,-0.27772740,10.30464458,0.04580637,0.02556635,0.01278317
1691768152772334,0.14844051,-0.03830723,10.00297451,-0.01065264,0.01917476,0.04048005
1691768152774499,-0.18674773,-0.37349546,10.37647057,-0.08309063,0.01491370,0.00852212
1691768152776464,-0.12449849,-0.30645782,10.19929886,-0.09587380,-0.00745685,0.02024002
1691768152778403,0.11492168,-0.06224924,10.31900978,-0.11078750,-0.03834952,-0.01704423
1691768152780425,-0.11971009,-0.15322891,10.39083576,-0.12570120,-0.07137272,0.00319579
1691768152782482,0.29209262,-0.05267244,10.10353088,-0.11717909,-0.08735169,0.00213053
1691768152784397,0.26815060,-0.06224924,10.25675964,-0.08522116,-0.12783173,0.00426106
1691768152786402,0.11013328,0.20111294,10.15620327,-0.05965481,-0.13315806,-0.00426106
1691768152788419,0.27772740,0.37828386,9.88805294,0.00106526,-0.16298546,0.03195793
1691768152790452,0.01915361,0.37828386,9.93114853,0.08202536,-0.20559603,0.05326322
1691768152792436,0.16280572,0.49799395,9.47146225,0.16511598,-0.17896442,0.04793690
1691768152794453,0.19632454,0.54108959,9.56244183,0.27803403,-0.16511598,0.02237055
1691768152796411,-0.01915361,0.58418524,9.58159542,0.34940675,-0.16085494,-0.00958738
1691768152798513,0.13886370,0.49799395,9.36132908,0.32703617,-0.14381070,-0.05006743
1691768152800431,-0.16759412,0.21068975,9.58159542,0.27057716,-0.03195793,-0.07882957
1691768152802398,0.04309563,0.05267244,9.41878986,0.23968449,-0.05006743,-0.02769688
1691768152804401,-0.31124622,0.09097967,9.73961258,0.13209279,0.02130529,0.00852212
1691768152806381,-0.36391866,-0.19153613,9.73961258,0.09374327,0.06817693,0.00213053
1691768152808448,0.00000000,0.07661445,9.51455784,0.01384844,0.07137272,0.03728426
1691768152810408,-0.28730419,0.00478840,9.61511421,-0.00639159,0.07350325,0.04367584
1691768152812401,-0.16759412,-0.22505496,9.41878986,0.00213053,0.09161274,0.04261058
1691768152814404,0.01436521,0.04788403,9.42836666,0.01810949,0.05326322,0.02876214
1691768152816462,-0.02394202,-0.12928689,9.58159542,0.04900216,0.04474111,0.03515373
1691768152818377,0.06703765,0.08140286,9.34696388,0.03941479,0.08309063,0.03941479
1691768152820508,0.05746084,-0.04309563,9.45709705,0.11185277,0.00106526,-0.00319579
1691768152822448,0.14365210,0.18195933,9.35175228,0.12357067,-0.00852212,0.02663161
1691768152824402,0.10534488,0.43574470,9.34217548,0.14168017,-0.02024002,0.02876214
1691768152826410,0.28730419,0.19153613,9.25119495,0.18748654,-0.10013486,0.02130529
1691768152828418,0.32082301,0.13886370,9.20809937,0.20453078,-0.12676647,0.02130529
1691768152830405,0.10055647,0.27772740,9.43794346,0.18535601,-0.13741912,0.02237055
1691768152832477,0.20590134,0.05746084,9.39963627,0.18216021,-0.14487596,0.00319579
1691768152834606,0.30166942,0.22026655,9.37569427,0.17150757,-0.14487596,0.00639159
1691768152836392,0.00957681,0.00957681,9.45230865,0.13528858,-0.12783173,0.00106526
1691768152838487,0.24899697,0.07182605,9.37569427,0.11078750,-0.09693906,-0.01278317
1691768152840466,-0.13407530,-0.08619126,9.74440098,0.10439591,-0.05219796,0.01171791
1691768152842399,-0.13407530,-0.09576806,9.58638382,0.04048005,-0.04154531,-0.00213053
1691768152844403,-0.09576806,0.02394202,9.73482418,0.01171791,0.02663161,0.04687164
1691768152846377,-0.32561144,-0.24899697,9.89762974,-0.00319579,0.03195793,0.02876214
1691768152848442,-0.10055647,-0.18195933,9.72524738,-0.00852212,0.06391586,0.02876214
1691768152850466,-0.22984336,-0.10534488,9.98382092,-0.08948221,0.11930962,0.04261058
1691768152852447,-0.32561144,-0.29688102,10.18972206,-0.12037488,0.11717909,0.06072007
1691768152854406,0.00000000,-0.18674773,10.10831928,-0.15020229,0.13741912,0.05965481
1691768152856374,-0.32561144,-0.12449849,10.53448772,-0.18855180,0.14913702,0.04900216
1691768152858464,0.03830723,-0.09097967,10.38125896,-0.22903186,0.13635385,0.04474111
1691768152860394,-0.03351882,-0.02394202,10.53448772,-0.25672874,0.12037488,0.03195793
1691768152862505,-0.17238252,-0.11971009,10.66856289,-0.27590349,0.13635385,0.03408846
1691768152864480,0.17238252,-0.14844051,10.58716011,-0.29188246,0.14487596,0.02769688
1691768152866454,-0.15801731,-0.01436521,10.91755962,-0.30573088,0.14594123,0.05219796
1691768152868424,0.00478840,-0.09097967,10.69729328,-0.30466563,0.15765914,0.06498113
1691768152870406,0.06703765,0.08140286,10.68292809,-0.26098979,0.15552860,0.04687164
1691768152872397,0.02394202,0.24420857,10.77869606,-0.25033715,0.16831177,0.02769688
1691768152874495,0.11492168,0.10534488,10.59673691,-0.21837921,0.16298546,0.03195793
1691768152876407,-0.06224924,0.38786069,10.65419769,-0.17683390,0.17576863,0.02024002
1691768152878512,0.05746084,0.25378537,10.41477776,-0.15233281,0.19600865,0.01065264
1691768152880436,0.04309563,0.25378537,10.46745014,-0.12996227,0.17257284,0.04367584
1691768152882455,-0.03830723,0.30166942,10.50096893,-0.13102752,0.15872440,0.05645901
1691768152884461,0.21068975,0.05746084,10.36210537,-0.11824435,0.15233281,0.06391586
1691768152886387,-0.04788403,0.30645782,10.44350815,-0.08948221,0.10972223,0.05752428
1691768152888402,0.19153613,0.16759412,10.27591324,-0.10013486,0.07669904,0.05006743
1691768152890403,0.25857377,0.18195933,10.33816338,-0.12037488,0.05752428,0.03834952
1691768152892472,0.16759412,0.22026655,10.37647057,-0.10439591,0.02982740,0.01704423
1691768152894413,0.29688102,0.06224924,10.19451046,-0.11398330,0.03408846,0.02130529
1691768152896357,0.00000000,0.30645782,10.36210537,-0.12889700,0.02556635,0.02663161
1691768152898410,0.13886370,-0.04309563,10.17056847,-0.12783173,0.01704423,0.03302320
1691768152900548,0.15322891,0.00478840,10.17056847,-0.14594123,0.05006743,0.02769688
1691768152902433,0.07661445,0.06224924,10.13704967,-0.12250541,0.04367584,0.02663161
1691768152904396,0.20590134,0.04788403,10.13226128,-0.11185277,0.04048005,0.02556635
1691768152906382,-0.05267244,0.53151280,10.21845245,-0.08522116,0.06391586,0.01171791
1691768152908461,0.06703765,0.17238252,10.08916569,-0.07030746,0.06498113,0.00532632
1691768152910454,0.10055647,0.14844051,10.09874249,-0.04793690,0.05858954,0.01810949
1691768152912429,0.00478840,0.39743748,10.14662647,-0.05219796,0.04261058,0.03941479
1691768152914461,0.08619126,-0.17717093,10.07958889,-0.05006743,0.01917476,0.03195793
1691768152916437,0.07661445,0.43574470,10.16099167,-0.05539375,-0.01171791,0.05539375
1691768152918344,0.21068975,0.14365210,10.14183807,-0.06924219,-0.03195793,0.04580637
1691768152920457,0.13886370,-0.04309563,10.13226128,-0.07350325,-0.05645901,0.03302320
1691768152922589,0.16759412,0.33518824,10.14662647,-0.08948221,-0.06178534,0.01810949
1691768152924500,0.13886370,-0.00478840,10.10831928,-0.11611383,-0.07350325,0.01491370
1691768152926410,0.09097967,0.10534488,10.11310768,-0.12570120,-0.07456851,0.01597897
1691768152928582,0.19153613,0.08619126,10.07001209,-0.12996227,-0.07243798,0.02450108
1691768152930458,0.11492168,0.03351882,10.04607010,-0.13635385,-0.06817693,0.01171791
1691768152932486,0.19632454,0.43095630,9.88326454,-0.12357067,-0.05858954,0.00958738
1691768152934451,0.01436521,0.05746084,9.95030212,-0.09906960,-0.05752428,0.02663161
1691768152936388,-0.02394202,0.39743748,9.91678333,-0.06924219,-0.03728426,0.01597897
1691768152938422,0.01915361,0.19632454,9.84016895,-0.03302320,-0.02982740,0.02024002
1691768152940453,-0.09097967,0.04309563,9.90241814,-0.02024002,-0.02450108,0.01704423
1691768152942428,0.13407530,0.26815060,9.78270817,-0.00852212,-0.03089267,0.03302320
1691768152944351,-0.01436521,-0.02394202,9.93593693,-0.03621899,-0.04154531,0.03195793
1691768152946390,0.02873042,0.31603462,9.95030212,-0.02769688,-0.05432849,0.04367584
1691768152948430,0.17238252,0.15801731,9.84495735,-0.02769688,-0.05219796,0.02769688
1691768152950560,-0.12928689,0.01436521,9.96466732,-0.02982740,-0.05858954,0.03941479
1691768152952430,0.10534488,0.17717093,9.84016895,-0.03728426,-0.05326322,0.02343582
1691768152954584,-0.02394202,-0.11013328,9.93593693,-0.03302320,-0.04367584,0.03089267
1691768152956389,0.01436521,0.11492168,9.97903252,-0.03728426,-0.04900216,0.00852212
1691768152958492,0.23942018,0.17238252,9.86889935,-0.03941479,-0.04580637,0.01597897
1691768152960420,-0.03830723,0.13407530,10.06043530,-0.03089267,-0.03621899,-0.00213053
1691768152962413,0.18195933,0.31124622,9.83538055,-0.02237055,-0.02343582,0.00000000
1691768152964406,-0.03351882,0.06703765,9.92157173,-0.01704423,-0.01704423,0.00213053
1691768152966416,-0.18195933,0.17238252,9.99339771,-0.00213053,-0.00745685,0.00958738
1691768152968417,0.10534488,0.11971009,9.80186176,0.01704423,-0.00532632,0.02237055
1691768152970434,-0.09097967,0.10534488,9.99339771,0.02343582,0.00106526,0.03089267
1691768152972428,0.22026655,0.28251579,9.84495735,0.02663161,-0.01597897,0.03834952
1691768152974450,0.14844051,0.11492168,9.90720654,0.01597897,-0.03728426,0.03728426
1691768152976410,-0.04309563,0.30645782,10.00297451,0.02130529,-0.04154531,0.03302320
1691768152978429,0.26336220,0.13886370,9.84495735,0.02343582,-0.04687164,0.01810949
1691768152980412,-0.07182605,0.06703765,10.03649330,0.02876214,-0.05858954,0.01384844
1691768152982450,0.11013328,0.21068975,9.96466732,0.01384844,-0.05645901,0.00319579
1691768152984439,0.19153613,-0.01915361,9.86411095,0.01704423,-0.05113269,0.00745685
1691768152986398,0.07182605,0.26336220,9.98382092,0.02237055,-0.06285060,0.01384844
1691768152988409,0.34955344,0.19632454,9.88805294,0.02876214,-0.05858954,0.01597897
1691768152990440,0.04788403,0.12928689,10.03649330,0.02982740,-0.05113269,0.00852212
1691768152992456,0.11492168,0.33039984,9.95030212,0.03728426,-0.04793690,0.01491370
1691768152994527,0.04309563,-0.09576806,9.90720654,0.04580637,-0.05645901,0.01597897
1691768152996399,-0.11492168,0.22026655,10.03170490,0.04474111,-0.05539375,0.01278317
1691768152998404,0.19632454,0.04788403,9.98860931,0.04474111,-0.04048005,0.02024002
1691768153000465,0.04309563,0.06703765,10.01733971,0.04261058,-0.03302320,0.01384844
1691768153002396,0.15801731,0.49320555,9.96945572,0.04154531,-0.04261058,0.00532632
1691768153004421,0.13407530,-0.06703765,9.90720654,0.03728426,-0.05432849,0.00426106
1691768153006401,-0.03830723,0.29209262,9.95987892,0.04048005,-0.05326322,0.02024002
1691768153008423,0.13886370,0.04309563,9.97424412,0.03408846,-0.05539375,0.01278317
1691768153010452,-0.02873042,-0.11492168,9.99818611,0.03408846,-0.06498113,0.01065264
1691768153012459,0.07661445,0.36391866,10.01255131,0.02343582,-0.06711166,0.01491370
1691768153014422,0.11013328,-0.22984336,10.06043530,0.02024002,-0.07989483,0.01278317
1691768153016338,0.13886370,0.33518824,10.07480049,0.00958738,-0.09267800,0.00852212
1691768153018490,0.28251579,0.16280572,10.14662647,-0.00319579,-0.09161274,0.01278317
1691768153020532,0.04788403,-0.18195933,10.16578007,-0.00319579,-0.09906960,0.01597897
1691768153022412,0.13407530,0.41659111,10.09395409,-0.01171791,-0.09906960,0.00958738
1691768153024428,-0.02873042,-0.22984336,10.16099167,-0.00532632,-0.10226539,0.02556635
1691768153026439,0.06703765,0.15322891,10.02691650,0.00213053,-0.10546118,0.02876214
1691768153028411,0.22505496,0.27772740,10.06043530,0.01597897,-0.10759171,0.03302320
1691768153030412,0.03351882,-0.12928689,10.11310768,0.01597897,-0.08841695,0.02343582
1691768153032481,0.21547815,0.48841715,9.94072533,0.02450108,-0.07563377,0.02556635
1691768153034573,-0.08140286,-0.00957681,10.05564690,0.02556635,-0.06711166,0.00745685
1691768153036409,-0.06703765,0.20111294,9.93114853,0.03089267,-0.05539375,0.01065264
1691768153038495,0.10534488,0.24420857,9.97903252,0.03941479,-0.05539375,0.01704423
1691768153040450,-0.13407530,-0.23942018,10.05564690,0.03728426,-0.04793690,0.00745685
1691768153042464,0.19153613,0.35913026,9.84495735,0.03834952,-0.04793690,0.01065264
1691768153044426,-0.07661445,0.02394202,10.01733971,0.03728426,-0.05219796,0.00639159
1691768153046386,0.00957681,0.20111294,9.89762974,0.03515373,-0.05539375,0.02130529
1691768153048482,0.21547815,0.33518824,9.84495735,0.03089267,-0.05326322,0.01278317
1691768153050454,-0.15801731,-0.13886370,9.99818611,0.03515373,-0.06178534,0.01704423
1691768153052540,0.17238252,0.26336220,9.79228497,0.04900216,-0.07137272,0.00958738
1691768153054427,-0.08619126,-0.01915361,9.96945572,0.05219796,-0.07456851,0.01171791
1691768153056391,-0.03830723,0.06703765,9.91199493,0.03941479,-0.08735169,0.01171791
1691768153058456,0.20111294,0.21547815,9.85453415,0.02769688,-0.09374327,0.00958738
1691768153060414,-0.00957681,-0.06224924,10.07001209,0.02237055,-0.10226539,0.01278317
1691768153062417,0.25857377,0.28251579,9.90241814,0.02237055,-0.10546118,0.00852212
1691768153064408,0.01915361,0.08140286,10.10353088,0.00639159,-0.10546118,0.01810949
1691768153066385,0.00478840,-0.05267244,10.11789608,0.00958738,-0.10013486,0.02024002
1691768153068436,0.26815060,0.29209262,9.92157173,0.02876214,-0.09800433,0.02343582
1691768153070424,-0.08140286,-0.06224924,10.10831928,0.02450108,-0.08522116,0.02450108
1691768153072422,0.21547815,0.26336220,9.87368774,0.02237055,-0.08415589,0.02450108
1691768153074445,0.05746084,0.11971009,10.01255131,0.03515373,-0.07776430,0.00852212
1691768153076433,-0.04788403,0.24899697,9.98382092,0.04154531,-0.05858954,0.00106526
1691768153078431,0.17717093,0.31603462,9.84495735,0.04261058,-0.05113269,0.00532632
1691768153080415,-0.16280572,-0.06703765,9.93593693,0.05965481,-0.04261058,0.01704423
1691768153082521,-0.05267244,0.25857377,9.90720654,0.05645901,-0.04580637,0.01810949
1691768153084488,-0.03351882,-0.02394202,9.89284134,0.03408846,-0.03621899,0.00000000
1691768153086397,-0.09576806,0.13407530,9.89284134,0.02130529,-0.03089267,0.00532632
1691768153088559,0.18195933,0.21547815,9.81622696,0.01171791,-0.03408846,0.00639159
1691768153090416,-0.04309563,0.01436521,9.89284134,0.00958738,-0.03515373,-0.00532632
1691768153092479,0.19632454,0.25378537,9.83538055,0.00639159,-0.02663161,-0.00745685
1691768153094460,0.09576806,0.00000000,9.89762974,0.01810949,-0.03408846,0.00106526
1691768153096431,0.00478840,0.07661445,9.84974575,0.02130529,-0.05113269,0.00106526
1691768153098421,0.13886370,0.12928689,9.91199493,0.01278317,-0.05752428,0.00000000
1691768153100470,-0.09576806,-0.08619126,9.99339771,0.01278317,-0.06924219,0.00958738
1691768153102450,0.18674773,0.20590134,9.88326454,0.00532632,-0.07989483,0.00745685
1691768153104564,0.04788403,-0.00478840,10.03170490,-0.00745685,-0.07882957,0.00745685
1691768153106410,0.08140286,0.10055647,9.96945572,-0.02130529,-0.07456851,0.01065264
1691768153108481,0.17238252,0.19632454,9.98860931,-0.02130529,-0.06604639,0.01384844
1691768153110480,-0.11492168,-0.05267244,10.04128170,-0.01704423,-0.06072007,0.01278317
1691768153112464,0.14844051,0.31603462,9.84495735,-0.00958738,-0.05858954,0.00000000
1691768153114495,-0.06224924,0.05267244,10.05085850,0.00213053,-0.04793690,0.01065264
1691768153116451,-0.02873042,0.10534488,9.89762974,0.01810949,-0.03728426,0.00639159
1691768153118404,0.13407530,0.29688102,9.92636013,0.03302320,-0.04154531,0.00852212
1691768153120495,-0.17238252,-0.10055647,10.04128170,0.04793690,-0.02556635,0.00000000
1691768153122442,0.20111294,0.32082301,9.72524738,0.05965481,-0.01704423,0.00319579
1691768153124412,-0.01915361,0.13407530,9.93593693,0.06072007,-0.01278317,0.00745685
1691768153126439,-0.03830723,0.04309563,9.79707336,0.05858954,-0.00213053,0.01597897
1691768153128553,0.19632454,0.32082301,9.73003578,0.03515373,0.00319579,0.00958738
1691768153130422,-0.26815060,-0.16280572,9.97424412,0.02876214,0.00639159,0.01704423
1691768153132410,0.12928689,0.19632454,9.64863300,0.01171791,0.00000000,0.01917476
1691768153134462,-0.06703765,0.01915361,9.96466732,-0.00319579,0.00319579,0.01065264
1691768153136400,-0.10055647,-0.16280572,9.87368774,-0.00852212,0.00106526,0.00213053
1691768153138431,0.33997664,0.24420857,9.76355457,-0.02024002,0.01384844,0.00426106
1691768153140499,-0.12928689,-0.07661445,10.08916569,-0.01704423,0.01171791,0.00426106
1691768153142451,0.17717093,0.26336220,9.67736340,-0.00745685,0.02450108,0.00639159
1691768153144476,0.05267244,0.28730419,9.88805294,-0.00319579,0.03515373,0.01704423
1691768153146410,-0.21068975,0.02394202,9.82580376,-0.00106526,0.04154531,0.01171791
1691768153148419,0.18195933,0.32082301,9.65820980,0.02876214,0.03195793,0.00426106
1691768153150439,-0.20111294,-0.03830723,10.04128170,0.04793690,0.02237055,0.00426106
1691768153152474,0.02873042,0.15322891,9.74440098,0.05113269,0.02237055,0.01810949
1691768153154665,0.14844051,0.22984336,9.85932255,0.04154531,0.01597897,0.01491370
1691768153156412,-0.09097967,-0.00957681,9.85453415,0.02876214,-0.00852212,0.01171791
1691768153158490,0.31603462,0.29688102,9.65342140,0.02024002,-0.01704423,0.01171791
1691768153160465,0.00000000,0.01436521,10.01255131,0.00426106,-0.02663161,0.02024002
1691768153162541,0.05267244,0.03830723,9.79228497,-0.00958738,-0.02769688,0.01917476
1691768153164479,0.08619126,0.13407530,9.80186176,-0.01171791,-0.03089267,0.02663161
1691768153166411,-0.09576806,-0.04309563,9.87847614,-0.00213053,-0.02876214,0.03408846
1691768153168542,0.24420857,0.26336220,9.63426781,-0.00106526,-0.01810949,0.02769688
1691768153170427,0.08619126,0.11971009,9.86889935,0.00319579,0.00000000,0.02876214
1691768153172408,0.18674773,0.13886370,9.70609379,0.01171791,0.01278317,0.01171791
1691768153174434,0.18674773,0.30166942,9.68215179,0.01810949,0.01065264,0.02343582
1691768153176429,-0.14844051,0.05267244,9.82101536,0.01278317,0.02663161,0.01917476
1691768153178427,0.05267244,0.24899697,9.66299820,0.01597897,0.02663161,0.02663161
1691768153180407,-0.12449849,0.10534488,9.81143856,0.01065264,0.02982740,0.02130529
1691768153182423,0.00478840,-0.03351882,9.76355457,-0.00319579,0.02450108,0.02237055
1691768153184413,0.16759412,0.10055647,9.82101536,-0.01704423,0.02024002,0.01171791
1691768153186437,0.00957681,0.01436521,9.92157173,-0.02343582,0.01491370,0.00852212
1691768153188424,0.20111294,0.26815060,9.75876617,-0.03515373,0.02024002,0.00958738
1691768153190412,-0.01915361,0.24899697,9.87368774,-0.02769688,0.00745685,0.01491370
1691768153192429,0.06224924,0.09097967,9.77791977,-0.01171791,0.02130529,0.00958738
1691768153194484,0.08619126,0.17238252,9.79228497,0.01597897,0.03089267,0.01704423
1691768153196433,-0.11013328,0.00000000,9.84495735,0.02982740,0.02663161,0.01491370
1691768153198421,0.09097967,0.22026655,9.68694019,0.03834952,0.02876214,0.01491370
1691768153200414,-0.08140286,0.23942018,9.84974575,0.03941479,0.04261058,0.01810949
1691768153202511,0.11971009,0.16759412,9.72524738,0.04154531,0.03089267,0.02982740
1691768153204428,0.23942018,0.34476504,9.80665016,0.02663161,0.01810949,0.03834952
1691768153206392,-0.10055647,0.08619126,9.93593693,0.02130529,0.01704423,0.02343582
1691768153208439,0.16280572,0.15322891,9.70609379,0.03089267,0.01065264,0.02237055
1691768153210448,-0.13407530,0.10534488,9.96945572,0.02663161,-0.00532632,0.01704423
1691768153212473,0.06224924,-0.01436521,9.84495735,0.00426106,-0.01917476,0.01491370
1691768153214481,0.26815060,0.11971009,9.90241814,-0.01278317,-0.01810949,0.00852212
1691768153216418,-0.00957681,-0.04309563,10.06522369,-0.01810949,-0.02450108,0.01278317
1691768153218457,0.32561144,0.23463176,9.75876617,-0.02024002,-0.03408846,0.01810949
1691768153220444,-0.01915361,0.21547815,10.01255131,-0.02130529,-0.03408846,0.03089267
1691768153222432,-0.00478840,0.09097967,9.75397778,-0.02343582,-0.00106526,0.04580637
1691768153224431,0.15322891,0.21547815,9.62947941,0.00426106,0.02556635,0.03834952
1691768153226448,-0.17717093,-0.03351882,9.84974575,0.02556635,0.06817693,0.02876214
1691768153228431,0.13886370,0.14365210,9.51455784,0.05113269,0.08096009,0.01384844
1691768153230476,-0.08619126,0.21547815,9.81622696,0.05965481,0.09480853,0.00426106
1691768153232417,-0.19153613,0.07182605,9.72045898,0.05113269,0.09161274,0.00639159
1691768153234523,0.21547815,0.32561144,9.62947941,0.02876214,0.09161274,0.01810949
1691768153236420,-0.16280572,-0.00478840,9.99339771,0.02130529,0.07243798,0.01917476
1691768153238464,0.17717093,0.08619126,9.61032581,0.00000000,0.05965481,0.02024002
1691768153240412,0.10534488,0.21547815,9.87368774,-0.01491370,0.05219796,0.01278317
1691768153242585,-0.14844051,-0.01915361,9.78270817,-0.00426106,0.05645901,0.02237055
1691768153244481,0.27293900,0.36870706,9.41878986,0.01810949,0.07882957,0.03089267
1691768153246403,-0.06703765,0.21547815,9.84974575,0.03515373,0.08948221,0.02450108
1691768153248500,-0.15322891,0.00000000,9.72524738,0.05432849,0.10333065,0.01704423
1691768153250434,0.24899697,0.25857377,9.65820980,0.06391586,0.10226539,0.02876214
1691768153252502,-0.16759412,0.00478840,9.80665016,0.04687164,0.09267800,0.03302320
1691768153254431,0.21547815,0.25378537,9.48582745,0.03834952,0.07137272,0.03728426
1691768153256404,-0.03351882,0.10534488,9.87847614,0.03408846,0.04793690,0.02450108
1691768153258449,-0.08619126,-0.06703765,9.87847614,0.02130529,0.01917476,0.02450108
1691768153260498,0.31603462,0.22026655,9.56244183,0.00319579,-0.00639159,0.01065264
1691768153262443,-0.03351882,-0.10534488,9.95030212,-0.03302320,-0.04261058,0.01278317
1691768153264409,0.09097967,-0.03830723,9.73482418,-0.04154531,-0.04261058,0.01491370
1691768153266411,0.12449849,0.08140286,9.88805294,-0.03728426,-0.05645901,0.01597897
1691768153268460,0.02394202,-0.00478840,9.86411095,-0.03941479,-0.05113269,0.01491370
1691768153270473,0.25857377,0.13407530,9.57680702,-0.02024002,-0.03941479,0.01704423
1691768153272450,0.08140286,0.17238252,9.73003578,0.00106526,0.00426106,0.02130529
1691768153274465,0.04309563,0.19632454,9.62947941,0.03515373,0.02556635,0.02237055
1691768153276409,0.16759412,0.35434186,9.53849983,0.05645901,0.06498113,0.02556635
1691768153278476,-0.06224924,0.21068975,9.72524738,0.06817693,0.10439591,0.01278317
1691768153280431,0.01436521,0.22026655,9.54328823,0.07882957,0.09800433,0.01917476
1691768153282419,-0.12449849,0.28251579,9.61032581,0.06391586,0.11185277,0.01384844
1691768153284417,-0.17238252,0.11492168,9.66299820,0.04900216,0.09800433,0.01810949
1691768153286439,0.02394202,0.18195933,9.66299820,0.02450108,0.08522116,0.02237055
1691768153288419,-0.09097967,-0.01436521,9.82580376,0.00106526,0.03728426,0.00852212
1691768153290422,0.13407530,-0.11013328,9.71567059,-0.04687164,0.02556635,0.02024002
1691768153292433,0.07182605,-0.09097967,9.84495735,-0.07243798,-0.02769688,0.00745685
1691768153294460,0.26336220,-0.17238252,9.86411095,-0.10865697,-0.04367584,0.00639159
1691768153296429,0.26815060,0.03830723,9.79707336,-0.13635385,-0.07350325,0.00639159
1691768153298419,0.07661445,0.07182605,9.88805294,-0.15339808,-0.09161274,0.02769688
1691768153300428,0.32561144,0.08140286,9.75397778,-0.14381070,-0.09161274,0.03195793
1691768153302484,0.02394202,0.07661445,9.87368774,-0.12889700,-0.08202536,0.03195793
1691768153304463,0.22026655,0.14844051,9.76834297,-0.11291803,-0.07350325,0.02876214
1691768153306408,0.19153613,0.08140286,9.79228497,-0.09693906,-0.04261058,0.02556635
1691768153308448,-0.01915361,0.17238252,9.92157173,-0.07882957,-0.01704423,0.01917476
1691768153310463,0.23942018,0.21547815,9.67736340,-0.05539375,-0.03089267,0.00958738
1691768153312446,-0.09576806,0.27293900,9.87368774,-0.04048005,-0.00745685,0.01278317
1691768153314424,0.14365210,0.12928689,9.71567059,-0.02343582,-0.01491370,0.03089267
1691768153316395,0.06224924,0.13886370,9.78270817,-0.03089267,-0.01597897,0.02237055
1691768153318427,-0.22026655,0.08140286,10.02691650,-0.04900216,-0.03302320,0.03089267
1691768153320450,0.13886370,0.11013328,9.79707336,-0.08309063,-0.03195793,0.02982740
1691768153322361,0.00000000,0.12449849,9.97903252,-0.08309063,-0.04367584,0.02663161
1691768153324417,0.11492168,0.11013328,9.73961258,-0.06924219,-0.05006743,0.02556635
1691768153326416,0.32082301,0.19153613,9.76834297,-0.06391586,-0.05858954,0.03621899
1691768153328500,-0.03830723,0.22984336,10.00776291,-0.06285060,-0.04367584,0.03408846
1691768153330446,0.22505496,0.25378537,9.62947941,-0.03089267,-0.01065264,0.04580637
1691768153332416,-0.06224924,0.19632454,9.74918938,0.00213053,0.01065264,0.02876214
1691768153334439,-0.16280572,0.33039984,9.70130539,0.02450108,0.03195793,0.02876214
1691768153336358,0.13886370,0.24420857,9.53371143,0.02769688,0.05006743,0.01704423
1691768153338426,-0.30166942,0.16759412,9.79707336,0.02024002,0.06711166,0.02024002
1691768153340429,0.11013328,0.26815060,9.59117222,0.00532632,0.07030746,0.01278317
1691768153342430,0.13407530,0.26815060,9.75876617,0.01171791,0.05645901,0.01810949
1691768153344541,-0.22984336,0.16280572,9.91678333,0.00213053,0.03195793,0.00639159
1691768153346424,0.18674773,0.04309563,9.63905621,-0.02663161,0.01704423,-0.00319579
1691768153348453,-0.09576806,0.08140286,10.07480049,-0.06072007,-0.00106526,-0.00852212
1691768153350442,0.03830723,-0.08140286,9.83059216,-0.06072007,-0.01278317,0.00000000
1691768153352506,0.24420857,0.04788403,9.81143856,-0.06604639,-0.04048005,0.00000000
1691768153354476,-0.05746084,0.25857377,10.07958889,-0.08309063,-0.04261058,0.01704423
1691768153356411,0.41180268,0.10534488,9.70609379,-0.07989483,-0.03941479,0.01810949
1691768153358409,0.13407530,0.17238252,10.01733971,-0.07989483,-0.04154531,0.01491370
1691768153360442,0.32082301,0.10534488,9.78749657,-0.05432849,-0.03728426,0.00745685
1691768153362525,0.12928689,0.02873042,9.87847614,-0.04793690,-0.02769688,0.01065264
1691768153364469,-0.19632454,0.17238252,10.11789608,-0.04900216,-0.02450108,0.01597897
1691768153366411,0.16759412,0.03351882,9.86411095,-0.06498113,-0.02982740,0.01384844
1691768153368421,0.10055647,0.10055647,10.10353088,-0.06391586,-0.03089267,0.01810949
1691768153370500,0.13407530,0.22505496,10.06522369,-0.06072007,-0.04367584,0.00745685
1691768153372514,0.20590134,0.04309563,9.95509052,-0.04474111,-0.05219796,0.00745685
1691768153374421,-0.03351882,0.36870706,10.08437729,-0.03834952,-0.05219796,0.00639159
1691768153376430,0.11013328,0.16759412,9.85932255,-0.02024002,-0.04367584,0.02556635
1691768153378480,0.04309563,0.10534488,9.90241814,-0.00958738,-0.01704423,0.02343582
1691768153380455,0.07661445,0.23942018,9.85453415,0.00639159,-0.00213053,0.01278317
1691768153382419,0.16280572,0.03830723,9.74918938,0.01384844,0.01597897,0.00852212
1691768153384436,0.02873042,0.36391866,9.86889935,0.03621899,0.02130529,0.01810949
1691768153386453,0.09097967,0.27293900,9.74440098,0.02556635,0.02450108,0.02450108
1691768153388434,0.00000000,0.17717093,9.83059216,0.01384844,0.01810949,0.02663161
1691768153390491,0.04309563,0.24420857,9.91199493,-0.01065264,0.01810949,0.02130529
1691768153392501,0.04788403,0.00478840,9.91199493,-0.01278317,0.00745685,0.01278317
1691768153394589,-0.08619126,0.11492168,9.98382092,-0.02450108,-0.00426106,-0.00319579
1691768153396435,0.10534488,0.07182605,9.98382092,-0.03195793,-0.01384844,0.00426106
1691768153398411,0.04788403,0.08619126,10.04128170,-0.04048005,-0.01597897,-0.00639159
1691768153400420,0.23463176,0.13886370,10.05085850,-0.05113269,-0.01917476,0.00106526
1691768153402442,0.18674773,0.07182605,10.03170490,-0.05858954,-0.02556635,-0.01065264
1691768153404493,-0.00478840,0.19632454,10.10353088,-0.06817693,-0.02024002,0.00000000
1691768153406400,0.11971009,0.07661445,10.01733971,-0.08628642,-0.00426106,-0.00426106
1691768153408417,-0.06224924,-0.02394202,10.17535686,-0.07669904,-0.00213053,0.00639159
1691768153410414,0.18674773,0.03830723,10.11789608,-0.05858954,-0.01810949,-0.00958738
1691768153412543,0.13886370,0.03830723,10.17535686,-0.04367584,-0.03089267,-0.01810949
1691768153414424,0.03351882,0.22505496,10.29506683,-0.05326322,-0.04154531,-0.02130529
1691768153416394,0.22984336,0.10055647,10.15620327,-0.06817693,-0.05326322,-0.01278317
1691768153418425,0.04309563,0.15801731,10.26633644,-0.06285060,-0.06817693,-0.00213053
1691768153420414,0.15801731,0.07661445,10.12268448,-0.05113269,-0.07243798,0.00106526
1691768153422433,0.00957681,0.20590134,10.18493366,-0.04048005,-0.05113269,0.02663161
1691768153424409,0.02394202,0.26336220,10.14662647,-0.03302320,-0.03834952,0.03515373
1691768153426394,0.24899697,0.28251579,9.88326454,-0.00426106,-0.02769688,0.04474111
1691768153428459,-0.01436521,0.30645782,10.05564690,0.00000000,-0.00852212,0.04048005
1691768153430485,0.13407530,0.30166942,9.91678333,0.00319579,-0.01491370,0.04154531
1691768153432416,0.00957681,0.08619126,9.97903252,0.00639159,-0.01065264,0.03515373
1691768153434413,-0.27293900,0.17238252,10.09395409,0.00532632,-0.02024002,0.03728426
1691768153436456,0.12449849,0.07182605,9.95509052,-0.01491370,-0.03515373,0.01491370
1691768153438444,-0.06703765,0.15322891,10.08916569,0.00106526,-0.05113269,0.01491370
1691768153440423,0.22984336,0.24420857,9.94072533,-0.00958738,-0.04900216,0.00745685
1691768153442422,0.27293900,0.13407530,9.89284134,-0.00852212,-0.04687164,0.01597897
1691768153444471,-0.05746084,0.33039984,10.02212811,0.00319579,-0.02982740,0.01704423
1691768153446416,0.17717093,0.18674773,9.59596062,0.01810949,-0.01384844,0.01704423
1691768153448498,-0.11971009,0.10534488,9.82580376,0.02556635,0.00106526,0.00745685
1691768153450420,-0.02873042,0.15322891,9.73961258,0.03408846,0.00639159,0.00852212
1691768153452437,0.19153613,-0.00478840,9.66778660,0.03408846,0.01810949,0.01171791
1691768153454509,-0.13407530,0.26815060,9.95509052,0.02982740,0.00639159,0.01810949
1691768153456421,0.15801731,0.16280572,9.64384460,0.02130529,-0.00106526,0.01171791
1691768153458434,-0.00478840,0.19632454,9.83538055,0.02343582,-0.01810949,0.02130529
1691768153460482,-0.03830723,0.29688102,9.88326454,0.00319579,-0.03195793,0.01065264
1691768153462441,0.27293900,-0.00957681,9.62469101,0.01384844,-0.04900216,0.01597897
1691768153464422,-0.08619126,0.17717093,9.84016895,0.01384844,-0.04474111,0.02024002
1691768153466398,0.40701428,0.82360536,9.77791977,0.02450108,-0.04261058,0.02237055
1691768153468431,0.15322891,1.28329206,10.07958889,0.01171791,-0.04048005,0.00852212
1691768153470475,0.25857377,1.22583127,9.92157173,0.01278317,-0.04367584,0.02237055
1691768153472440,0.13886370,0.84754741,9.94072533,0.00745685,-0.04900216,0.02556635
1691768153474444,0.07182605,0.99119949,10.01255131,0.01171791,-0.05219796,0.03408846
1691768153476398,0.11492168,0.45010993,9.97424412,-0.00852212,-0.06498113,0.02556635
1691768153478484,0.14844051,0.55066639,10.04607010,-0.01171791,-0.07350325,0.02982740
1691768153480463,0.25857377,0.57460839,10.01255131,-0.02876214,-0.08948221,0.02024002
1691768153482441,0.13886370,0.16280572,10.04128170,-0.02663161,-0.09480853,0.01917476
1691768153484421,0.06224924,0.41180268,10.05564690,-0.04048005,-0.10546118,0.01065264
1691768153486428,0.09097967,0.05746084,9.94551373,-0.03728426,-0.10333065,0.01597897
1691768153488456,-0.03351882,0.08140286,9.91199493,-0.03515373,-0.08841695,0.01704423
1691768153490428,0.15801731,0.36870706,9.81622696,-0.02556635,-0.07137272,0.02024002
1691768153492433,-0.00478840,-0.01915361,9.85453415,-0.01065264,-0.06178534,0.01917476
1691768153494466,0.05267244,0.39743748,9.65342140,-0.00852212,-0.04048005,0.00958738
1691768153496456,0.09097967,0.20111294,9.44752026,0.01171791,-0.04474111,-0.00958738
1691768153498429,-0.05267244,0.12449849,9.30386734,0.01597897,-0.06285060,-0.01704423
1691768153500422,0.14365210,0.30166942,9.01177502,-0.00213053,-0.09374327,-0.00745685
1691768153502442,0.00478840,-0.08619126,8.89206505,-0.02450108,-0.12463594,-0.01597897
1691768153504481,0.05746084,0.00478840,8.56166553,-0.03834952,-0.15339808,-0.00958738
1691768153506433,0.27293900,0.00478840,8.30309105,-0.07456851,-0.19068234,0.00000000
1691768153508426,0.00478840,-0.14365210,8.27436066,-0.09587380,-0.23009712,0.01065264
1691768153510459,0.19153613,-0.08619126,7.80030918,-0.10546118,-0.24288028,0.00532632
1691768153512470,0.16759412,-0.03351882,7.77157879,-0.07989483,-0.27164242,0.00639159
1691768153514458,-0.00957681,0.00957681,7.60398483,-0.09161274,-0.25566345,0.02876214
1691768153516401,0.20590134,0.11013328,7.09641361,-0.05432849,-0.24181503,0.01597897
1691768153518413,0.00000000,0.18195933,7.29273844,0.00106526,-0.25033715,0.02343582
1691768153520478,-0.06703765,0.09097967,6.99585724,0.02982740,-0.16085494,0.01917476
1691768153522493,0.09097967,0.21068975,6.80910969,0.06391586,-0.20026971,0.02024002
1691768153524418,-0.10055647,0.13886370,7.00064564,0.06924219,-0.18535601,0.00532632
1691768153526409,0.00957681,-0.09097967,6.76122570,0.06498113,-0.20879182,0.00000000
1691768153528501,0.07661445,0.20590134,6.67982292,0.05752428,-0.24074976,0.03089267
1691768153530470,0.03351882,-0.00957681,6.82347488,0.01917476,-0.19281286,0.01491370
1691768153532456,0.16759412,-0.20111294,6.78037930,0.02237055,-0.28655612,0.01278317
1691768153534461,0.12928689,0.11492168,6.65588093,-0.03834952,-0.29081720,0.02982740
1691768153536402,0.15322891,-0.15322891,6.73728371,-0.07669904,-0.27590349,0.00958738
1691768153538494,0.15801731,-0.13886370,6.72770691,-0.07882957,-0.32384038,-0.00213053
1691768153540421,0.10534488,0.16759412,6.58884287,-0.11930962,-0.31957933,-0.01384844
1691768153542430,0.02873042,0.12449849,6.71334171,-0.09054748,-0.29294771,0.01704423
1691768153544481,0.01436521,0.14365210,6.61757326,-0.07563377,-0.25353295,0.01171791
1691768153546446,-0.01436521,0.27772740,6.47392130,-0.03941479,-0.22264026,0.00213053
1691768153548470,-0.18195933,0.28730419,6.67982292,-0.00319579,-0.18216021,0.02024002
1691768153550423,-0.13886370,0.06703765,6.72770691,-0.00319579,-0.14807175,0.03728426
1691768153552451,-0.17238252,0.10534488,6.68461132,0.02343582,-0.13315806,0.03195793
1691768153554551,-0.22026655,0.17238252,6.75164890,0.04261058,-0.09587380,0.02876214
1691768153556423,-0.11013328,0.00957681,6.85220528,0.05752428,-0.09161274,0.03408846
1691768153558496,-0.22505496,0.05746084,6.88093567,0.03834952,-0.06391586,0.03195793
1691768153560448,-0.16280572,0.05746084,6.76122570,0.06711166,-0.05858954,0.01491370
1691768153562535,-0.11492168,0.04309563,6.95755005,0.07882957,-0.07989483,0.01704423
1691768153564470,-0.12928689,0.11013328,7.07247162,0.05432849,-0.06072007,0.02982740
1691768153566460,-0.01436521,0.10055647,6.89051247,0.04367584,-0.06604639,0.02450108
1691768153568424,-0.02394202,0.00957681,7.06289482,0.02663161,-0.08309063,0.01491370
1691768153570446,0.05267244,0.04788403,7.20175886,0.02876214,-0.07989483,0.03089267
1691768153572612,0.00957681,0.07182605,7.11556768,-0.00532632,-0.10226539,0.02663161
1691768153574436,0.05746084,0.02873042,7.24485445,-0.02769688,-0.08841695,0.01704423
1691768153576402,0.05746084,0.02873042,7.38850641,-0.04154531,-0.09480853,0.02343582
1691768153578442,0.01915361,-0.02394202,7.29752684,-0.05645901,-0.09161274,0.03195793
1691768153580505,-0.07661445,0.06224924,7.41723680,-0.06285060,-0.08735169,0.03089267
1691768153582449,-0.11492168,0.20590134,7.62792683,-0.06391586,-0.07989483,0.03515373
1691768153584450,-0.17238252,0.11971009,7.58483076,-0.05219796,-0.07137272,0.05113269
1691768153586429,-0.11013328,0.20590134,7.56088877,-0.04580637,-0.06498113,0.04687164
1691768153588496,-0.17238252,0.26815060,7.74763680,-0.04261058,-0.04048005,0.05432849
1691768153590479,-0.11971009,0.14844051,7.67102242,-0.02769688,-0.02556635,0.06178534
1691768153592475,-0.10055647,0.27293900,7.68538761,-0.02343582,0.00000000,0.03941479
1691768153594464,-0.18674773,0.16280572,7.85776997,-0.00426106,0.02556635,0.04367584
1691768153596465,-0.04788403,0.30166942,7.80988598,0.02237055,0.03089267,0.03408846
1691768153598454,-0.07661445,0.38786069,7.92480755,0.02663161,0.03834952,0.04367584
1691768153600427,-0.11971009,0.14365210,8.03015232,0.02769688,0.04687164,0.04793690
1691768153602538,-0.05267244,0.22505496,7.92480755,0.03089267,0.05006743,0.04367584
1691768153604478,-0.15801731,0.18674773,8.22168827,0.01704423,0.04900216,0.04793690
1691768153606419,0.04788403,0.04309563,8.29351425,0.00852212,0.06072007,0.03728426
1691768153608531,0.15801731,0.18195933,8.15943909,0.01384844,0.06285060,0.04367584
1691768153610431,0.22505496,0.34476504,8.31745625,0.01065264,0.05219796,0.02982740
1691768153612571,0.01915361,0.05746084,8.49941635,-0.01491370,0.05645901,0.02769688
1691768153614478,0.18674773,0.25378537,8.35097599,-0.02130529,0.05752428,0.01917476
1691768153616474,0.18195933,0.30645782,8.56166553,-0.02876214,0.05326322,0.01491370
1691768153618430,-0.04788403,0.11492168,8.71489429,-0.02769688,0.05006743,0.01810949
1691768153620474,0.18195933,0.35913026,8.54730034,-0.04154531,0.04793690,0.02130529
1691768153622545,-0.01915361,0.15322891,8.78672028,-0.02663161,0.06178534,0.02450108
1691768153624434,-0.09576806,0.03351882,8.81545067,-0.02130529,0.07563377,0.01810949
1691768153626412,0.12928689,0.23463176,8.67658710,-0.01065264,0.07137272,0.01065264
1691768153628523,-0.20111294,-0.10534488,8.94473743,-0.01491370,0.06817693,0.02343582
1691768153630592,-0.08619126,0.05267244,8.88727665,-0.01171791,0.09161274,0.01810949
1691768153632442,0.06224924,0.13407530,8.83460426,-0.00106526,0.10652644,0.02876214
1691768153634432,-0.18674773,0.03351882,9.11233139,-0.00852212,0.10546118,0.03834952
1691768153636433,0.10534488,0.24899697,8.97346783,-0.00958738,0.11185277,0.04474111
1691768153638593,0.10055647,0.14844051,9.02614021,-0.01384844,0.11930962,0.03195793
1691768153640448,0.00000000,0.19153613,9.20809937,-0.02024002,0.12250541,0.03408846
1691768153642436,0.16759412,0.29209262,9.09317780,-0.02343582,0.11611383,0.03089267
1691768153644441,-0.02873042,0.11492168,9.19852257,-0.02556635,0.11185277,0.02556635
1691768153646455,0.02394202,0.27293900,9.26556015,-0.01384844,0.11824435,0.00745685
1691768153648529,0.04788403,0.21068975,9.22725296,-0.00532632,0.11398330,0.01597897
1691768153650435,-0.06224924,0.06703765,9.31344414,-0.00213053,0.11930962,0.01704423
1691768153652499,0.03351882,0.17238252,9.22725296,0.00852212,0.13315806,0.03089267
1691768153654439,-0.02394202,0.05267244,9.23682976,0.05113269,0.12889700,0.02663161
1691768153656457,0.00478840,0.23463176,9.37090588,0.07137272,0.13848437,0.02663161
1691768153658471,0.02394202,0.22505496,9.30865574,0.06178534,0.14807175,0.03408846
1691768153660433,0.00000000,0.23942018,9.25598335,0.06498113,0.15020229,0.04048005
1691768153662463,0.10534488,0.33039984,9.33738708,0.05752428,0.15446334,0.04261058
1691768153664482,0.05746084,0.07661445,9.32302189,0.05219796,0.16085494,0.03195793
1691768153666496,0.07661445,0.16280572,9.33259869,0.03941479,0.15233281,0.03728426
1691768153668429,0.10534488,0.06224924,9.39005947,0.03302320,0.15126754,0.02663161
1691768153670499,-0.05267244,-0.02873042,9.37569427,0.00958738,0.14168017,0.02450108
1691768153672501,0.11013328,0.26815060,9.40442467,0.00852212,0.13422331,0.00426106
1691768153674558,0.04309563,-0.03351882,9.50976944,0.00213053,0.13209279,0.00532632
1691768153676411,0.20111294,0.26336220,9.47625065,0.00106526,0.11824435,0.00000000
1691768153678450,0.19632454,0.21068975,9.49540424,-0.00639159,0.11078750,0.00213053
1691768153680485,-0.03830723,-0.13407530,9.62469101,0.01065264,0.11078750,0.00852212
1691768153682433,0.19632454,0.21547815,9.51934624,0.00639159,0.11717909,0.01278317
1691768153684489,0.13407530,0.02873042,9.65342140,-0.00532632,0.11611383,0.01171791
1691768153686415,-0.06224924,0.00957681,9.67257500,-0.01171791,0.12783173,0.01704423
1691768153688564,0.23942018,0.29209262,9.50498104,-0.01065264,0.13422331,0.02343582
1691768153690442,-0.04309563,0.01436521,9.68215179,0.00958738,0.14700650,0.01810949
1691768153692542,0.06703765,0.29688102,9.60074902,0.00745685,0.15126754,0.02663161
1691768153694435,0.08140286,0.16759412,9.62469101,0.01597897,0.13848437,0.03302320
1691768153696474,-0.20590134,0.04309563,9.81143856,0.01278317,0.13954964,0.02556635
1691768153698466,0.15322891,0.30166942,9.64863300,0.01810949,0.14168017,0.03408846
1691768153700478,-0.03351882,0.02394202,9.83059216,0.01704423,0.12676647,0.03089267
1691768153702435,0.01915361,0.17717093,9.80665016,0.02237055,0.11398330,0.01810949
1691768153704454,0.30166942,0.17238252,9.77791977,0.03089267,0.10439591,0.00213053
1691768153706505,-0.06224924,-0.02394202,10.00297451,0.03089267,0.09480853,0.00106526
1691768153708472,0.22026655,0.28251579,9.80186176,0.02876214,0.08735169,-0.00852212
1691768153710503,0.05267244,0.01436521,9.92157173,0.02130529,0.08309063,-0.00745685
1691768153712431,-0.02394202,0.09097967,9.94551373,0.01491370,0.08309063,-0.00426106
1691768153714627,0.25857377,0.14844051,9.87368774,0.00426106,0.08841695,0.00745685
1691768153716422,-0.07182605,-0.10055647,10.13704967,-0.00745685,0.09693906,0.02556635
1691768153718528,0.16280572,0.23942018,9.91678333,-0.01384844,0.10439591,0.02769688
1691768153720464,0.05267244,0.06224924,9.93593693,-0.00106526,0.12037488,0.03408846
1691768153722489,-0.04788403,0.20590134,10.00776291,0.00426106,0.12357067,0.02237055
1691768153724517,0.21547815,0.29688102,9.85453415,0.00319579,0.11824435,0.02769688
1691768153726418,-0.11013328,0.02873042,10.05564690,0.00745685,0.12250541,0.02556635
1691768153728504,0.02873042,0.25857377,9.94551373,0.01917476,0.11717909,0.03195793
1691768153730495,0.00000000,0.03830723,9.96466732,0.03089267,0.09587380,0.02130529
1691768153732572,-0.03830723,0.12449849,10.07480049,0.03195793,0.08948221,0.02556635
1691768153734453,0.27772740,0.15801731,9.97424412,0.02130529,0.07563377,0.01065264
1691768153736388,0.09097967,0.00478840,10.07001209,0.02769688,0.04687164,0.00639159
1691768153738484,0.18195933,0.32082301,10.03170490,0.03195793,0.04367584,0.00213053
1691768153740433,0.09097967,0.03830723,10.02212811,0.00852212,0.04474111,0.00106526
1691768153742446,0.05746084,0.19153613,10.05564690,-0.01171791,0.03195793,0.00106526
1691768153744461,0.22026655,0.09097967,10.05085850,-0.02237055,0.03089267,0.00639159
1691768153746413,0.00478840,-0.06703765,10.09874249,-0.02130529,0.03089267,0.00213053
1691768153748532,0.20111294,0.32082301,10.14662647,-0.01384844,0.03195793,0.01171791
1691768153750465,0.11492168,-0.09097967,10.16099167,-0.01065264,0.04048005,0.02130529
1691768153752430,0.10534488,0.25857377,10.08916569,-0.01597897,0.03728426,0.02024002
1691768153754549,0.23463176,0.16759412,10.12268448,-0.00426106,0.02982740,0.01278317
1691768153756458,-0.04309563,-0.08140286,10.17056847,-0.00319579,0.03302320,0.01384844
1691768153758467,0.12449849,0.36870706,10.11789608,-0.00532632,0.03302320,0.02237055
1691768153760433,-0.05746084,-0.18674773,10.18493366,0.01171791,0.03089267,0.01810949
1691768153762460,0.05267244,0.21547815,10.03170490,0.00852212,0.03408846,0.02556635
1691768153764523,0.21068975,0.21068975,10.06043530,0.00426106,0.03089267,0.02982740
1691768153766426,0.00478840,-0.15801731,10.07001209,0.01278317,0.04367584,0.02556635
1691768153768447,0.28251579,0.47405192,9.91199493,0.01171791,0.05113269,0.01704423
1691768153770443,-0.00478840,-0.02873042,10.07001209,-0.00319579,0.04367584,0.01384844
1691768153772589,0.01436521,0.22984336,9.91678333,-0.00639159,0.04048005,0.01171791
1691768153774477,0.17238252,0.24899697,9.99818611,-0.00426106,0.04474111,0.00852212
1691768153776444,-0.14365210,-0.17717093,10.10353088,-0.01171791,0.04580637,0.00958738
1691768153778437,0.25857377,0.37349546,9.90720654,-0.00532632,0.03728426,0.01065264
1691768153780508,-0.02873042,-0.07182605,10.17535686,-0.00639159,0.03302320,0.01384844
1691768153782470,0.07661445,0.22026655,9.99339771,-0.00319579,0.02982740,0.00319579
1691768153784454,0.31603462,0.37828386,9.94072533,-0.00106526,0.03089267,0.00213053
1691768153786416,-0.11971009,-0.07661445,10.11789608,0.00745685,0.03408846,0.00426106
1691768153788485,0.19632454,0.38786069,9.84495735,0.01491370,0.03408846,0.01065264
1691768153790610,-0.05267244,-0.00478840,10.08916569,0.02024002,0.02450108,0.01171791
1691768153792443,-0.07661445,0.04788403,10.01255131,0.00639159,0.01171791,0.02237055
1691768153794433,0.29688102,0.23942018,9.93593693,0.00745685,0.00426106,0.01704423
1691768153796449,-0.03351882,-0.13407530,10.13704967,0.00213053,-0.00319579,0.02769688
1691768153798482,0.31124622,0.28251579,9.91678333,-0.00106526,-0.01171791,0.02663161
1691768153800460,0.11492168,0.03351882,10.15141487,-0.02663161,-0.01917476,0.02130529
1691768153802459,-0.02394202,0.08619126,10.07001209,-0.03089267,-0.01704423,0.01384844
1691768153804447,0.21068975,0.27772740,9.92157173,-0.02343582,-0.02024002,0.01384844
1691768153806490,-0.11013328,-0.13886370,10.14183807,-0.02130529,-0.01704423,0.01065264
1691768153808466,0.15322891,0.21068975,9.95030212,-0.01597897,-0.01278317,0.00958738
1691768153810460,0.11013328,0.03351882,10.06043530,-0.01065264,-0.00745685,0.02556635
