timestamp,accel_x,accel_y,accel_z,gyro_x,gyro_y,gyro_z
1691757638957333,-0.56981999,-0.03351882,9.80186176,0.00532632,0.00213053,0.00106526
1691757638959447,-0.57939678,-0.09097967,9.80665016,0.00319579,0.00426106,0.00106526
1691757638961463,-0.58897364,0.00000000,9.83538055,-0.00745685,0.00213053,0.00213053
1691757638963381,-0.59376204,0.02873042,9.81622696,-0.00958738,-0.00106526,0.00106526
1691757638965386,-0.64164603,0.01915361,9.79228497,-0.00532632,-0.00532632,-0.00106526
1691757638967410,-0.63685763,0.00000000,9.78749657,-0.00426106,-0.00958738,-0.00319579
1691757638969410,-0.61770403,-0.03351882,9.79707336,-0.00426106,-0.00319579,-0.00532632
1691757638971493,-0.63206923,-0.04788403,9.78270817,0.00319579,0.00106526,-0.00106526
1691757638973380,-0.60333884,0.09097967,9.78270817,0.00319579,-0.00106526,0.00213053
1691757638975477,-0.60333884,0.12449849,9.82580376,0.00319579,-0.00106526,0.00745685
1691757638977410,-0.63685763,0.03351882,9.79707336,-0.00319579,-0.00319579,0.00319579
1691757638979467,-0.60812724,0.05267244,9.75876617,-0.00319579,-0.00745685,0.00319579
1691757638981442,-0.61770403,0.07661445,9.81622696,-0.00532632,-0.00639159,0.00106526
1691757638983392,-0.65122288,0.00000000,9.80665016,0.00213053,-0.00639159,-0.00106526
1691757638985496,-0.60333884,0.02394202,9.74918938,0.01065264,-0.00532632,-0.00426106
1691757638987393,-0.58418524,0.00478840,9.77791977,0.00958738,0.00106526,-0.00426106
1691757638989382,-0.62728083,-0.03351882,9.81143856,-0.00106526,0.00106526,-0.00213053
1691757638991468,-0.62728083,0.03830723,9.76834297,-0.00852212,-0.00106526,-0.00426106
1691757638993479,-0.61770403,0.12449849,9.80665016,-0.01278317,-0.00319579,0.00426106
1691757638995445,-0.64643449,0.10534488,9.84016895,-0.01171791,-0.00745685,0.00426106
1691757638997373,-0.61291564,0.00000000,9.77313137,-0.00319579,-0.00958738,0.00213053
1691757638999405,-0.63206923,-0.01436521,9.74918938,0.00106526,-0.00532632,-0.00106526
1691757639001513,-0.60333884,-0.04788403,9.81622696,0.00852212,0.00213053,-0.00426106
1691757639003408,-0.56024319,0.03830723,9.79707336,0.01171791,0.00213053,-0.00319579
1691757639005409,-0.59855044,0.01436521,9.75397778,0.01278317,-0.00213053,-0.00319579
1691757639007375,-0.60812724,0.04788403,9.79228497,-0.00426106,-0.00426106,0.00213053
1691757639009422,-0.60333884,0.03830723,9.79228497,-0.00639159,-0.00426106,0.00319579
1691757639011477,-0.61770403,0.02394202,9.75397778,-0.01065264,-0.00426106,0.00426106
1691757639013438,-0.61291564,0.06224924,9.77791977,0.00426106,-0.00532632,0.00106526
1691757639015398,-0.58418524,0.03351882,9.76834297,0.01491370,0.00213053,-0.00319579
1691757639017423,-0.56981999,0.01915361,9.74918938,0.01597897,0.00532632,-0.00639159
1691757639019414,-0.59855044,-0.02394202,9.73482418,0.00426106,0.00319579,-0.00958738
1691757639021405,-0.59376204,0.02394202,9.76834297,-0.00106526,0.00532632,-0.00106526
1691757639023391,-0.58897364,0.07182605,9.78270817,-0.00532632,0.00213053,0.00213053
1691757639025408,-0.59376204,0.06703765,9.73482418,-0.00958738,-0.00639159,0.00639159
1691757639027491,-0.58897364,0.00000000,9.75397778,-0.00319579,-0.00532632,0.00319579
1691757639029403,-0.62249243,-0.04309563,9.76834297,0.00106526,-0.00106526,-0.00213053
1691757639031404,-0.58897364,-0.06703765,9.76355457,0.01171791,0.00426106,-0.00958738
1691757639033436,-0.61291564,0.08619126,9.78270817,0.01171791,0.00852212,-0.00958738
1691757639035425,-0.58418524,0.02873042,9.78270817,0.01278317,0.00639159,-0.00852212
1691757639037374,-0.58418524,0.03830723,9.77791977,0.00106526,0.00213053,-0.00106526
1691757639039384,-0.61770403,-0.02394202,9.79707336,-0.00319579,0.00000000,0.00532632
1691757639041520,-0.63206923,0.04788403,9.78270817,-0.00852212,-0.00319579,0.00319579
1691757639043455,-0.63206923,0.06703765,9.79228497,0.01065264,-0.00213053,0.00000000
1691757639045609,-0.61770403,0.03830723,9.79228497,0.01171791,0.00000000,-0.00106526
1691757639047374,-0.56503159,-0.01436521,9.79228497,0.00958738,0.00319579,-0.00852212
1691757639049402,-0.58897364,-0.01436521,9.78270817,0.00000000,0.00106526,-0.01171791
1691757639051454,-0.63206923,0.07661445,9.82101536,-0.00958738,0.00532632,-0.00852212
1691757639053414,-0.66558808,0.17717093,9.81622696,-0.01171791,0.00532632,-0.00319579
1691757639055450,-0.61770403,0.11013328,9.79228497,-0.00106526,-0.00213053,0.00426106
1691757639057357,-0.61770403,0.00478840,9.77791977,0.00532632,-0.00532632,0.00426106
1691757639059513,-0.61770403,-0.04788403,9.86889935,0.00319579,-0.00639159,-0.00852212
1691757639061426,-0.62728083,-0.03830723,9.85453415,0.06391586,0.00426106,-0.02343582
1691757639063407,-0.62728083,0.15322891,9.87368774,0.09800433,0.00745685,-0.02663161
1691757639065375,-0.64643449,0.13886370,9.87368774,0.08948221,0.00000000,-0.01704423
1691757639067379,-0.64164603,-0.06703765,9.84016895,0.02130529,-0.01278317,-0.01065264
1691757639069445,-0.68474168,-0.11971009,9.84495735,0.01917476,-0.01065264,0.00213053
1691757639071398,-0.58897364,0.18195933,9.91199493,0.02876214,-0.00958738,-0.01491370
1691757639073381,-0.59855044,0.33997664,9.93593693,-0.04048005,-0.00319579,-0.03728426
1691757639075381,-0.78050977,0.05746084,9.86411095,-0.01171791,-0.01278317,-0.08628642
1691757639077413,-0.75177932,-0.02873042,9.87368774,-0.10333065,-0.05219796,-0.17363811
1691757639079403,-0.66558808,0.09576806,10.02212811,-0.11185277,-0.08522116,-0.19920444
1691757639081410,-0.80445176,0.14365210,9.96945572,0.00426106,-0.12144014,-0.24820662
1691757639083414,-0.90021986,0.07661445,9.78749657,0.04367584,-0.15659387,-0.26844662
1691757639085395,-0.88585460,-0.04309563,9.99339771,0.03089267,-0.19813919,-0.26418558
1691757639087380,-0.92895025,-0.15801731,10.09395409,-0.02663161,-0.25672874,-0.24181503
1691757639089394,-0.95289230,-0.23463176,9.85932255,-0.02876214,-0.29507825,-0.21198763
1691757639091375,-1.06781399,-0.18195933,9.96945572,0.01917476,-0.36751622,-0.20772657
1691757639093415,-0.78529817,-0.04788403,10.03649330,0.02556635,-0.41438785,-0.21198763
1691757639095490,-0.64164603,0.01436521,10.18493366,0.04048005,-0.46339002,-0.20772657
1691757639097371,-0.68953007,-0.07661445,10.34774017,0.02982740,-0.56459016,-0.21198763
1691757639099375,-0.46447513,-0.13886370,10.30464458,0.04048005,-0.60293967,-0.22264026
1691757639101384,-0.36391866,-0.00478840,10.71644688,-0.00106526,-0.64874601,-0.21944447
1691757639103389,-0.30645782,-0.04788403,10.80742645,-0.02769688,-0.69242191,-0.22050974
1691757639105400,-0.04788403,0.08140286,11.11867237,-0.03089267,-0.75101143,-0.25992453
1691757639107362,-0.28730419,-0.10534488,11.36288166,-0.05965481,-0.73396719,-0.25459820
1691757639109384,-0.05267244,-0.00478840,11.32936287,-0.10546118,-0.73077142,-0.25246766
1691757639111420,-0.05746084,0.00000000,11.60709000,-0.12570120,-0.72757560,-0.22157501
1691757639113423,-0.26815060,-0.23463176,11.85129833,-0.09054748,-0.67431241,-0.23116238
1691757639115400,0.01915361,0.21547815,11.85129833,-0.09800433,-0.64555025,-0.21731395
1691757639117391,-0.38307226,-0.03830723,12.21042824,-0.07350325,-0.63702816,-0.20985709
1691757639119432,-0.13407530,0.09097967,12.21042824,-0.03195793,-0.64235443,-0.17363811
1691757639121378,-0.18195933,0.08619126,12.46421432,-0.04154531,-0.57417750,-0.20985709
1691757639123386,0.06224924,0.20590134,12.47379112,-0.03728426,-0.54754591,-0.19920444
1691757639125380,0.00957681,0.16280572,12.52167511,-0.01384844,-0.55926383,-0.18429075
1691757639127401,-0.49320555,-0.06703765,12.75630665,-0.01704423,-0.56672066,-0.19174761
1691757639129444,0.16759412,0.22026655,12.66053867,-0.04900216,-0.54221958,-0.19813919
1691757639131411,-0.30645782,-0.00478840,12.93826580,-0.02024002,-0.50706589,-0.16937704
1691757639133428,-0.08140286,0.15322891,12.80419064,0.00745685,-0.53902382,-0.17576863
1691757639135463,-0.43095630,0.02394202,13.19205093,0.00106526,-0.56778592,-0.21518342
1691757639137366,-0.31124622,0.00478840,13.29739666,0.00000000,-0.55819857,-0.22264026
1691757639139394,0.14844051,0.14844051,13.17768574,0.00106526,-0.52624065,-0.22796659
1691757639141382,-0.41180268,0.01915361,13.28781986,-0.00852212,-0.52943641,-0.22050974
1691757639143390,0.06703765,0.13886370,13.23993587,-0.03089267,-0.51771849,-0.20772657
1691757639145445,-0.26815060,-0.11492168,13.43147182,-0.04367584,-0.49641323,-0.19068234
1691757639147374,-0.19632454,-0.08140286,13.53202820,-0.05326322,-0.47723848,-0.18322548
1691757639149386,-0.08140286,-0.02873042,13.41710663,-0.06711166,-0.46232477,-0.15233281
1691757639151401,-0.37828386,-0.08619126,13.45062542,-0.06924219,-0.43995422,-0.14913702
1691757639153509,0.10534488,0.07661445,13.29260826,-0.07243798,-0.39734364,-0.14913702
1691757639155433,-0.45968673,-0.18195933,13.41231823,-0.06817693,-0.37923414,-0.15765914
1691757639157428,-0.15322891,0.12449849,13.14416695,-0.06711166,-0.35792884,-0.14807175
1691757639159424,-0.27293900,0.04788403,13.08191776,-0.03834952,-0.35473305,-0.15872440
1691757639161433,-0.28251579,0.12449849,13.10107136,-0.03728426,-0.35153726,-0.15659387
1691757639163431,-0.22984336,0.01915361,12.87122822,-0.04261058,-0.35899413,-0.16085494
1691757639165444,-0.45010993,-0.11971009,12.87601662,-0.04793690,-0.36538571,-0.15765914
1691757639167365,0.09097967,0.09576806,12.61265469,-0.05645901,-0.38242993,-0.15446334
1691757639169509,-0.22505496,-0.11492168,12.73236465,-0.07350325,-0.36858150,-0.13528858
1691757639171448,-0.01915361,0.01436521,12.58392429,-0.08096009,-0.36325517,-0.14594123
1691757639173446,-0.00957681,0.04788403,12.42590714,-0.08522116,-0.34940675,-0.12783173
1691757639175443,-0.25857377,-0.12449849,12.44506073,-0.07243798,-0.32384038,-0.14061491
1691757639177410,0.17238252,0.21547815,12.13381386,-0.05539375,-0.32597092,-0.13209279
1691757639179494,-0.30645782,-0.03351882,12.30140877,-0.04580637,-0.31531829,-0.12783173
1691757639181547,0.14844051,0.22026655,11.82256794,-0.04367584,-0.32064459,-0.10972223
1691757639183412,-0.12449849,0.16759412,11.88002872,-0.03302320,-0.31318775,-0.11504856
1691757639185479,-0.25378537,-0.00957681,11.81299114,-0.01917476,-0.31212249,-0.09267800
1691757639187429,0.10534488,0.23942018,11.57357121,-0.03302320,-0.31425300,-0.09374327
1691757639189400,-0.34955344,-0.12449849,11.78426075,-0.03621899,-0.30786142,-0.08735169
1691757639191415,-0.04309563,0.09097967,11.36767006,-0.01597897,-0.30466563,-0.09693906
1691757639193427,-0.17717093,0.17238252,11.38203526,-0.00106526,-0.29827404,-0.09480853
1691757639195399,-0.29209262,-0.00478840,11.37724686,0.00426106,-0.28762141,-0.08735169
1691757639197448,-0.20590134,0.19153613,11.20965195,0.03408846,-0.24820662,-0.07350325
1691757639199391,-0.45010993,-0.03351882,11.26711273,0.04367584,-0.23648870,-0.06924219
1691757639201412,-0.24420857,0.09097967,10.85531044,0.04367584,-0.21092236,-0.06391586
1691757639203479,-0.28251579,0.19632454,10.87446404,0.03089267,-0.17576863,-0.05539375
1691757639205451,-0.45010993,-0.12928689,10.90319443,0.02769688,-0.15233281,-0.06391586
1691757639207408,-0.11492168,0.25857377,10.52491093,0.04154531,-0.11824435,-0.06924219
1691757639209431,-0.33518824,0.13886370,10.67335129,0.05858954,-0.09161274,-0.07350325
1691757639211454,-0.20590134,0.11492168,10.39562416,0.06817693,-0.07989483,-0.06604639
1691757639213607,-0.12449849,0.33518824,10.29027843,0.07989483,-0.05858954,-0.06711166
1691757639215440,-0.19153613,-0.05267244,10.29985619,0.07456851,-0.04580637,-0.07243798
1691757639217372,-0.14844051,0.24899697,10.13704967,0.07137272,-0.03515373,-0.06711166
1691757639219477,-0.14365210,0.17238252,10.23760605,0.07243798,-0.02982740,-0.04367584
1691757639221415,-0.26815060,-0.09097967,10.19929886,0.08522116,-0.02237055,-0.04048005
1691757639223464,0.08619126,0.23463176,10.03170490,0.08628642,-0.01065264,-0.04048005
1691757639225393,-0.08619126,0.02873042,10.26154804,0.07030746,-0.01065264,-0.03302320
1691757639227424,-0.15322891,-0.01436521,10.09395409,0.07563377,-0.01065264,-0.02237055
1691757639229428,0.04788403,0.20590134,10.03649330,0.09693906,-0.02343582,-0.02663161
1691757639231421,-0.21068975,0.01436521,10.19929886,0.11611383,-0.03728426,-0.03834952
1691757639233417,-0.06224924,0.14844051,10.00297451,0.12357067,-0.03515373,-0.02663161
1691757639235409,-0.06703765,0.22026655,10.05085850,0.12570120,-0.05965481,-0.03408846
1691757639237419,-0.17238252,-0.04309563,10.05085850,0.12676647,-0.07669904,-0.03408846
1691757639239446,0.03830723,0.18195933,9.94072533,0.11611383,-0.09374327,-0.03195793
1691757639241423,-0.04309563,0.09576806,10.09395409,0.12463594,-0.09906960,-0.03089267
1691757639243410,0.00478840,-0.10055647,9.99818611,0.11185277,-0.10439591,-0.04261058
1691757639245605,0.09097967,0.17238252,9.96945572,0.10546118,-0.11185277,-0.04048005
1691757639247420,-0.08619126,0.01436521,10.11310768,0.09800433,-0.11398330,-0.02343582
1691757639249513,-0.02394202,-0.03351882,10.02212811,0.08948221,-0.10546118,-0.03621899
1691757639251402,-0.17238252,-0.00957681,10.14662647,0.05539375,-0.08415589,-0.03195793
1691757639253456,-0.08140286,-0.09576806,10.10831928,0.03515373,-0.07669904,-0.03195793
1691757639255429,0.03830723,0.02394202,9.95987892,0.05006743,-0.07669904,-0.01597897
1691757639257400,-0.10534488,0.00000000,10.17056847,0.04261058,-0.07563377,-0.01597897
1691757639259390,-0.10055647,-0.07661445,10.07958889,0.03302320,-0.08202536,-0.01810949
1691757639261456,-0.02394202,0.07661445,9.96466732,0.02450108,-0.10439591,-0.02556635
1691757639263470,-0.19153613,-0.04788403,10.15141487,0.03941479,-0.11398330,-0.04687164
1691757639265402,0.02873042,0.07182605,9.97424412,0.03302320,-0.13209279,-0.03515373
1691757639267383,-0.07661445,-0.00478840,10.14662647,0.03195793,-0.13422331,-0.02982740
1691757639269516,-0.03351882,0.02873042,10.09395409,0.03408846,-0.13422331,-0.01810949
1691757639271400,0.13886370,0.11492168,9.83538055,0.03941479,-0.12144014,-0.03728426
1691757639273447,-0.03351882,0.13886370,9.99818611,0.02237055,-0.09906960,-0.01917476
1691757639275392,-0.00957681,-0.01436521,9.94551373,0.01917476,-0.08415589,-0.02237055
1691757639277376,-0.01915361,-0.04309563,9.82580376,0.01917476,-0.06711166,-0.00426106
1691757639279441,-0.16759412,-0.01436521,9.97424412,0.00000000,-0.04687164,-0.00426106
1691757639281457,0.00478840,-0.01436521,9.85932255,0.00213053,-0.04580637,-0.00319579
1691757639283534,-0.06703765,0.12449849,9.89284134,0.01810949,-0.03834952,-0.01171791
1691757639285427,-0.02873042,-0.00957681,9.81622696,0.01704423,-0.03941479,-0.01278317
1691757639287420,0.10055647,0.12449849,9.76355457,0.01065264,-0.03941479,-0.01491370
1691757639289591,-0.03830723,0.15801731,9.85932255,0.01704423,-0.04793690,-0.01917476
1691757639291419,0.11971009,0.09097967,9.75876617,0.00852212,-0.05645901,-0.00958738
1691757639293432,0.06703765,0.01915361,9.76355457,0.00000000,-0.05752428,-0.01278317
1691757639295477,-0.00957681,0.03830723,9.85932255,0.01810949,-0.06178534,0.00000000
1691757639297399,0.07661445,0.00957681,9.78749657,0.04367584,-0.05645901,-0.00213053
1691757639299371,-0.00478840,0.22505496,9.78749657,0.04474111,-0.05006743,0.00000000
1691757639301418,0.00478840,0.06703765,9.86889935,0.04474111,-0.03408846,-0.00532632
1691757639303464,-0.04788403,0.08140286,9.84495735,0.04900216,-0.03089267,-0.00958738
1691757639305446,-0.08140286,0.11013328,9.84016895,0.05006743,-0.03195793,-0.00426106
1691757639307374,-0.10055647,0.08140286,9.88326454,0.03728426,-0.02450108,-0.01171791
1691757639309393,-0.03351882,0.00000000,9.82580376,0.05432849,-0.01917476,-0.00213053
1691757639311467,0.00957681,0.12449849,9.80186176,0.06285060,-0.01065264,-0.01491370
1691757639313442,0.03351882,0.15322891,9.78749657,0.07350325,0.00106526,-0.00319579
1691757639315420,0.00957681,0.13407530,9.75397778,0.07989483,0.00319579,-0.00532632
1691757639317371,-0.09097967,0.15801731,9.80665016,0.07882957,0.02024002,0.00213053
1691757639319397,-0.12449849,0.03351882,9.80186176,0.06604639,0.03195793,0.00426106
1691757639321394,-0.17717093,0.11013328,9.73961258,0.05645901,0.04154531,0.01384844
1691757639323468,-0.17717093,0.13886370,9.84974575,0.05113269,0.04367584,0.00532632
1691757639325383,-0.02873042,0.11492168,9.84495735,0.06178534,0.05432849,0.01384844
1691757639327391,0.00478840,0.26336220,9.74440098,0.06924219,0.05645901,-0.00213053
1691757639329450,-0.01436521,0.17238252,9.84495735,0.07350325,0.05432849,0.00319579
1691757639331432,-0.00478840,0.11013328,9.78270817,0.07456851,0.05752428,-0.00319579
1691757639333386,-0.09097967,0.17238252,9.75876617,0.07989483,0.06604639,0.01171791
1691757639335483,-0.12449849,0.01915361,9.86411095,0.08096009,0.06391586,-0.00426106
1691757639337419,-0.01915361,0.33039984,9.75876617,0.08309063,0.05965481,0.01065264
1691757639339435,-0.11013328,0.10055647,9.80665016,0.08628642,0.06072007,0.01171791
1691757639341434,0.00478840,0.13407530,9.87368774,0.08415589,0.06178534,0.01810949
1691757639343437,0.02873042,0.26336220,9.79707336,0.07989483,0.06178534,0.01810949
1691757639345461,-0.06224924,0.13407530,9.91678333,0.07882957,0.05752428,0.02024002
1691757639347369,0.00000000,0.10055647,9.81143856,0.08522116,0.06285060,0.02130529
1691757639349457,-0.07661445,0.12928689,9.74918938,0.07989483,0.06498113,0.02024002
1691757639351391,-0.13886370,0.02873042,9.93114853,0.07137272,0.06391586,0.01597897
1691757639353476,-0.03351882,0.13886370,9.78270817,0.06924219,0.06498113,0.01917476
1691757639355422,-0.06703765,0.19153613,9.78749657,0.07989483,0.06498113,0.01278317
1691757639357377,-0.02873042,0.24420857,9.85932255,0.08096009,0.06604639,0.01278317
1691757639359388,0.01436521,0.28251579,9.71088219,0.06817693,0.06604639,0.01491370
1691757639361463,-0.05746084,0.06224924,9.84974575,0.06391586,0.06817693,0.02982740
1691757639363458,-0.06224924,0.04309563,9.82580376,0.05539375,0.06924219,0.02663161
1691757639365403,-0.12928689,0.03351882,9.74440098,0.04367584,0.07243798,0.01917476
1691757639367367,-0.11013328,-0.04788403,9.86889935,0.04261058,0.07989483,0.01065264
1691757639369393,0.00478840,0.08619126,9.73482418,0.05539375,0.08202536,0.00639159
1691757639371503,-0.04309563,0.10534488,9.73961258,0.05752428,0.07137272,0.00639159
1691757639373398,-0.02394202,0.22505496,9.84016895,0.05326322,0.05965481,0.01278317
1691757639375409,0.01915361,0.25857377,9.72045898,0.05965481,0.04261058,0.01278317
1691757639377396,-0.03830723,0.02394202,9.79228497,0.06285060,0.02556635,0.01278317
1691757639379431,0.04788403,0.15322891,9.82580376,0.05113269,0.00213053,0.01171791
1691757639381406,0.01436521,0.12449849,9.81622696,0.05539375,-0.02556635,0.01065264
1691757639383413,0.00957681,0.04788403,9.88805294,0.05858954,-0.03941479,0.01810949
1691757639385393,0.17717093,0.27772740,9.82580376,0.07882957,-0.04687164,0.02237055
1691757639387387,0.05267244,0.12928689,9.87847614,0.07669904,-0.04793690,0.02663161
1691757639389424,0.03830723,0.19632454,9.79228497,0.07456851,-0.03834952,0.02024002
1691757639391410,0.00000000,0.15801731,9.74440098,0.06391586,-0.02450108,0.01810949
1691757639393389,-0.14365210,-0.05267244,9.86889935,0.05858954,-0.00319579,0.01384844
1691757639395417,-0.03830723,0.11013328,9.76355457,0.05219796,0.01384844,0.02769688
1691757639397407,-0.13407530,0.05746084,9.84974575,0.03408846,0.04580637,0.02663161
1691757639399392,-0.13886370,0.09576806,9.81143856,0.04687164,0.05965481,0.02663161
1691757639401378,-0.07661445,0.36391866,9.69651699,0.05858954,0.08309063,0.01810949
1691757639403410,-0.22026655,0.19153613,9.84016895,0.06817693,0.09267800,0.02450108
1691757639405474,-0.10534488,0.22026655,9.76355457,0.06391586,0.09480853,0.02237055
1691757639407440,-0.14844051,0.26336220,9.70609379,0.06178534,0.10013486,0.03515373
1691757639409421,-0.22026655,-0.08140286,9.74918938,0.05965481,0.09800433,0.04261058
1691757639411449,-0.06703765,0.04309563,9.69172859,0.05752428,0.08735169,0.03834952
1691757639413516,-0.08619126,0.05746084,9.84495735,0.06178534,0.08202536,0.02876214
1691757639415581,-0.03830723,0.01436521,9.86411095,0.04367584,0.07669904,0.03515373
1691757639417375,0.11492168,0.28251579,9.78270817,0.03515373,0.05965481,0.02982740
1691757639419504,-0.02394202,-0.01915361,9.94551373,0.02876214,0.04687164,0.02982740
1691757639421483,-0.06224924,-0.01436521,9.83059216,0.01917476,0.04687164,0.02130529
1691757639423456,-0.07661445,0.06703765,9.84495735,-0.00213053,0.04367584,0.01597897
1691757639425528,-0.17238252,-0.18195933,9.92636013,0.00106526,0.04048005,0.01597897
1691757639427396,-0.02873042,0.09097967,9.65342140,0.01065264,0.03621899,0.00000000
1691757639429494,-0.06703765,0.15322891,9.80186176,0.00852212,0.03302320,0.00000000
1691757639431501,-0.02873042,0.14844051,9.76355457,0.00426106,0.04793690,0.01384844
1691757639433459,0.03351882,0.32561144,9.56244183,0.01704423,0.05326322,0.03408846
1691757639435448,-0.09097967,0.04309563,9.79707336,0.02237055,0.05752428,0.03408846
1691757639437432,-0.01436521,0.01436521,9.69172859,0.02982740,0.06924219,0.02876214
1691757639439432,-0.07182605,0.13886370,9.72524738,0.03621899,0.08415589,0.02450108
1691757639441398,-0.15322891,-0.04788403,9.93114853,0.04154531,0.07989483,0.02130529
1691757639443485,-0.05267244,0.16759412,9.75397778,0.05219796,0.06924219,0.01597897
1691757639445481,-0.16759412,0.25378537,9.92636013,0.06285060,0.06817693,0.02130529
1691757639447528,-0.11492168,0.19153613,9.96945572,0.07456851,0.06178534,0.01704423
1691757639449529,-0.02394202,0.34476504,9.78270817,0.06604639,0.06072007,0.01597897
1691757639451404,-0.17238252,0.03830723,9.97903252,0.05965481,0.06178534,0.01491370
1691757639453434,-0.07661445,-0.06703765,9.85932255,0.05432849,0.06178534,0.01810949
1691757639455589,-0.11492168,0.06703765,9.91678333,0.05219796,0.06711166,0.01704423
1691757639457384,-0.16280572,-0.05746084,10.05085850,0.04261058,0.07456851,0.01917476
1691757639459396,-0.01436521,0.10055647,9.79228497,0.04474111,0.07989483,0.01704423
1691757639461405,-0.09097967,0.12928689,9.97424412,0.04367584,0.08309063,0.01704423
1691757639463468,-0.06224924,0.11971009,10.01733971,0.03728426,0.08096009,0.01171791
1691757639465413,-0.05746084,0.24420857,9.85932255,0.03728426,0.07882957,0.01917476
1691757639467379,-0.19632454,0.01436521,10.05085850,0.03834952,0.07350325,0.01704423
1691757639469392,-0.07182605,0.05746084,9.88805294,0.03728426,0.06285060,0.01491370
1691757639471458,-0.11013328,0.09097967,9.95030212,0.03941479,0.03408846,0.02769688
1691757639473451,-0.10534488,0.04309563,10.11789608,0.02769688,0.01810949,0.03195793
1691757639475395,0.12928689,0.13886370,9.86411095,0.02450108,-0.01278317,0.02237055
1691757639477371,0.05746084,-0.00478840,9.99339771,0.00639159,-0.03408846,0.01810949
1691757639479470,0.11971009,0.00478840,9.98382092,-0.00213053,-0.04474111,0.00852212
1691757639481455,0.05746084,-0.09097967,9.88326454,-0.01704423,-0.05113269,0.02343582
1691757639483427,0.05267244,0.22984336,9.90241814,-0.01597897,-0.04580637,0.01917476
1691757639485393,0.08619126,0.07661445,9.74440098,-0.03089267,-0.03408846,0.03195793
1691757639487401,-0.09576806,-0.01915361,9.78749657,-0.04687164,-0.00213053,0.02237055
1691757639489466,-0.04309563,0.18674773,9.81143856,-0.05113269,0.00532632,0.02237055
1691757639491421,0.00000000,0.20590134,9.69651699,-0.04687164,0.01491370,0.00852212
1691757639493391,-0.19153613,0.13886370,9.78270817,-0.03515373,0.00000000,0.00106526
1691757639495477,-0.11013328,0.26815060,9.70130539,-0.02343582,-0.02024002,0.01171791
1691757639497444,-0.19153613,0.05267244,9.68215179,-0.01171791,-0.02343582,0.00000000
1691757639499424,0.02873042,0.33518824,9.73003578,-0.01065264,-0.02769688,-0.00106526
1691757639501395,-0.01436521,0.23463176,9.67257500,-0.00958738,-0.02769688,-0.00852212
1691757639503508,-0.05746084,0.05746084,9.73482418,-0.00106526,-0.01810949,0.00745685
1691757639505468,0.00957681,0.33997664,9.72524738,0.00106526,-0.00106526,0.00000000
1691757639507399,-0.04788403,0.28730419,9.75397778,-0.00426106,0.01384844,0.01278317
1691757639509391,-0.18195933,0.13407530,9.84495735,-0.01491370,0.01384844,0.01810949
1691757639511394,-0.16280572,0.20590134,9.79228497,-0.01491370,0.01917476,0.04048005
1691757639513598,-0.24420857,-0.05746084,9.82580376,-0.00852212,0.00213053,0.03728426
1691757639515442,-0.14844051,0.02873042,9.87368774,-0.00426106,-0.00639159,0.04367584
1691757639517486,0.02873042,0.11013328,9.86411095,0.00106526,-0.00958738,0.03408846
1691757639519393,-0.21068975,0.00478840,9.84495735,-0.00532632,-0.01597897,0.00958738
1691757639521423,0.11492168,0.14365210,9.77791977,-0.00319579,-0.01278317,-0.00745685
1691757639523462,-0.03351882,0.00000000,9.80665016,-0.00745685,-0.00852212,0.00426106
1691757639525409,-0.22026655,-0.07182605,9.81143856,-0.00532632,0.00958738,0.00106526
1691757639527383,-0.17717093,0.12449849,9.68694019,-0.00852212,0.03302320,0.00000000
1691757639529426,-0.30645782,-0.03351882,9.71088219,-0.00213053,0.05432849,0.02024002
1691757639531457,-0.23942018,0.17717093,9.65342140,0.01917476,0.08202536,0.02769688
1691757639533394,-0.16280572,0.28251579,9.61990261,0.01704423,0.10759171,0.03302320
1691757639535486,-0.18195933,0.02873042,9.65820980,0.01278317,0.12357067,0.02556635
1691757639537429,-0.23942018,0.20590134,9.61990261,0.01065264,0.11717909,0.03621899
1691757639539417,-0.09097967,0.08619126,9.67736340,0.01171791,0.11398330,0.02343582
1691757639541463,-0.16280572,0.03351882,9.65820980,0.00000000,0.10226539,0.01917476
1691757639543401,-0.06703765,0.20590134,9.62469101,-0.00745685,0.06604639,0.01065264
1691757639545486,-0.10055647,-0.03351882,9.71088219,-0.00958738,0.04474111,0.01491370
1691757639547393,-0.03830723,0.10055647,9.66778660,-0.02663161,0.01491370,0.01384844
1691757639549404,0.06703765,0.21068975,9.75397778,-0.01917476,-0.01491370,0.00426106
1691757639551411,0.03830723,-0.00478840,9.78749657,-0.02769688,-0.03408846,0.01704423
1691757639553500,0.11492168,0.11971009,9.71088219,-0.02982740,-0.05539375,0.02237055
1691757639555472,0.02873042,-0.07661445,9.86411095,-0.03302320,-0.06924219,0.00745685
1691757639557329,0.03830723,-0.05267244,9.78749657,-0.02876214,-0.06604639,0.01491370
1691757639559435,0.06703765,0.09097967,9.76355457,-0.04261058,-0.06178534,0.02663161
1691757639561391,-0.02873042,-0.15322891,9.86411095,-0.03195793,-0.05752428,0.01810949
1691757639563486,0.03830723,0.07661445,9.73961258,-0.02237055,-0.04580637,0.02450108
1691757639565415,-0.06703765,0.20590134,9.83538055,-0.03195793,-0.02663161,0.01810949
1691757639567382,-0.11013328,0.11492168,9.83538055,-0.03941479,-0.01491370,0.01491370
1691757639569382,-0.07661445,0.25857377,9.70130539,-0.03941479,0.00745685,0.01491370
1691757639571433,-0.19153613,0.08140286,9.75876617,-0.02769688,0.04580637,0.01491370
1691757639573398,-0.13886370,0.02873042,9.62947941,-0.01171791,0.07563377,0.01810949
1691757639575563,-0.19632454,0.09097967,9.70130539,-0.01278317,0.10546118,0.01704423
1691757639577381,-0.31603462,-0.16759412,9.71567059,-0.00958738,0.11611383,0.02130529
1691757639579464,-0.24420857,0.00000000,9.59117222,-0.01278317,0.11930962,0.01278317
1691757639581504,-0.27772740,0.11971009,9.74440098,-0.00852212,0.12037488,0.02024002
1691757639583424,-0.17717093,0.15322891,9.64863300,-0.01810949,0.11611383,0.02876214
1691757639585408,-0.10055647,0.43095630,9.62469101,-0.01704423,0.10439591,0.02237055
1691757639587446,-0.15322891,0.17717093,9.71088219,-0.01810949,0.08948221,0.01597897
1691757639589427,-0.02394202,0.09097967,9.56723022,-0.04154531,0.08096009,0.01917476
1691757639591389,-0.15322891,0.11492168,9.73961258,-0.04474111,0.06711166,-0.00213053
1691757639593493,-0.11492168,-0.10534488,9.71088219,-0.04154531,0.06817693,-0.00106526
1691757639595397,-0.13407530,0.26815060,9.73961258,-0.03621899,0.05432849,0.00958738
1691757639597488,-0.14365210,0.09097967,9.82101536,-0.02876214,0.05006743,0.00319579
1691757639599444,0.09097967,0.15801731,9.71088219,-0.01278317,0.04367584,0.00639159
1691757639601395,-0.03830723,0.28730419,9.79707336,-0.01491370,0.03834952,0.00745685
1691757639603425,-0.09097967,0.13886370,9.82580376,-0.01810949,0.02343582,0.01917476
1691757639605492,0.02394202,0.16280572,9.69172859,-0.01491370,0.01065264,0.01810949
1691757639607402,-0.19153613,0.06703765,9.87368774,-0.01704423,0.00639159,0.02024002
1691757639609395,0.06703765,0.08619126,9.76834297,-0.01704423,0.00426106,0.01384844
1691757639611393,0.07182605,0.18674773,9.76834297,-0.00213053,0.01704423,0.00532632
1691757639613452,-0.03830723,0.09097967,9.81622696,-0.00532632,0.01065264,-0.00106526
1691757639615470,0.08619126,0.19632454,9.66299820,0.00426106,0.01065264,-0.00745685
1691757639617425,-0.19632454,0.15801731,9.82101536,-0.00745685,0.01065264,0.01278317
1691757639619389,-0.08619126,0.15801731,9.75876617,-0.01704423,0.00852212,0.02024002
1691757639621438,0.02394202,0.05746084,9.71088219,-0.01171791,-0.00852212,0.01491370
1691757639623500,-0.13407530,-0.13886370,9.89762974,-0.01171791,-0.01917476,0.00213053
1691757639625484,0.18674773,0.02394202,9.79228497,-0.02769688,-0.02663161,0.01065264
1691757639627378,-0.05267244,0.04309563,9.93114853,-0.04580637,-0.03515373,-0.00426106
1691757639629471,-0.01436521,0.07182605,9.87847614,-0.03728426,-0.04900216,-0.01704423
1691757639631482,0.14844051,0.19153613,9.89762974,-0.04687164,-0.05326322,-0.02769688
1691757639633486,-0.22984336,-0.04788403,10.07958889,-0.05326322,-0.06817693,-0.01491370
1691757639635401,0.11971009,0.08619126,9.90241814,-0.06817693,-0.08202536,-0.01704423
1691757639637472,-0.04309563,-0.00478840,10.01733971,-0.07137272,-0.10759171,-0.01065264
1691757639639433,0.01436521,-0.00478840,9.97424412,-0.07882957,-0.12250541,-0.01597897
1691757639641508,0.37828386,0.22026655,9.94072533,-0.09480853,-0.14807175,-0.02024002
1691757639643405,-0.04309563,-0.09097967,10.09395409,-0.10652644,-0.17044231,-0.02663161
1691757639645416,0.24420857,0.11492168,9.88326454,-0.10226539,-0.19281286,-0.01810949
1691757639647390,-0.06703765,0.08140286,10.12268448,-0.09374327,-0.21624868,-0.01171791
1691757639649424,-0.09097967,0.04309563,10.07958889,-0.08415589,-0.22264026,0.00000000
1691757639651410,0.19632454,0.31603462,10.02212811,-0.07563377,-0.22583605,0.00000000
1691757639653392,-0.18674773,0.10055647,10.23281765,-0.07030746,-0.21944447,-0.00532632
1691757639655497,0.14844051,0.28730419,9.91199493,-0.06604639,-0.21731395,-0.02237055
1691757639657394,-0.09576806,0.21547815,10.07958889,-0.06072007,-0.18961707,-0.01491370
1691757639659395,-0.22984336,0.03830723,10.07958889,-0.05432849,-0.19387813,-0.01917476
1691757639661398,0.09097967,0.23942018,9.97424412,-0.06072007,-0.15552860,-0.00745685
1691757639663398,-0.38307226,-0.03830723,10.26154804,-0.05539375,-0.14594123,-0.00106526
1691757639665496,-0.03830723,0.15322891,9.93114853,-0.06924219,-0.12783173,0.00639159
1691757639667383,-0.13407530,0.22984336,10.05085850,-0.07350325,-0.10333065,0.01065264
1691757639669394,-0.40222588,0.08619126,10.07001209,-0.07776430,-0.08628642,0.02237055
1691757639671452,-0.08619126,0.35913026,9.80186176,-0.06391586,-0.07350325,0.01810949
1691757639673495,-0.55545479,0.10055647,10.07480049,-0.05219796,-0.05113269,0.01065264
1691757639675494,-0.34476504,0.12928689,9.77791977,-0.04154531,-0.01065264,0.00213053
1691757639677375,-0.25378537,0.29209262,9.68215179,-0.02024002,0.06178534,0.00319579
1691757639679458,-0.47884035,0.06224924,9.75876617,0.01065264,0.14061491,0.00213053
1691757639681468,-0.24420857,0.32082301,9.51455784,0.03408846,0.21092236,0.00852212
1691757639683464,-0.57939678,0.23942018,9.67736340,0.04580637,0.26098979,-0.00532632
1691757639685399,-0.46926352,0.23942018,9.60553741,0.06072007,0.26312032,-0.00532632
1691757639687381,-0.33039984,0.37828386,9.42357826,0.07669904,0.22690132,-0.00532632
1691757639689556,-0.45968673,0.24899697,9.55286503,0.06604639,0.21624868,0.01491370
1691757639691414,-0.15322891,0.27772740,9.50976944,0.05858954,0.15659387,0.01384844
1691757639693410,-0.05267244,0.25857377,9.56723022,0.05752428,0.06924219,0.00852212
1691757639695423,-0.09576806,0.10534488,9.60074902,0.05113269,0.00213053,0.01278317
1691757639697424,0.12449849,0.24420857,9.56723022,0.04367584,-0.04580637,-0.01384844
1691757639699411,0.13407530,0.15801731,9.71567059,0.03621899,-0.07776430,-0.00213053
1691757639701464,0.13407530,0.25378537,9.56244183,0.01491370,-0.09693906,-0.01384844
1691757639703394,0.06224924,0.19632454,9.59117222,0.00213053,-0.08841695,0.00426106
1691757639705437,-0.08619126,-0.02873042,9.67257500,-0.00426106,-0.09587380,-0.03089267
1691757639707448,-0.01915361,0.13886370,9.51455784,-0.02343582,-0.06285060,-0.00319579
1691757639709429,-0.13886370,0.04309563,9.58638382,-0.04580637,-0.05645901,0.00532632
1691757639711411,-0.05746084,-0.01436521,9.57680702,-0.03195793,-0.03621899,0.00532632
1691757639713472,-0.00957681,0.15322891,9.57201862,-0.03408846,0.01278317,0.00106526
1691757639715409,-0.19632454,0.13886370,9.69651699,-0.02237055,0.00958738,-0.00213053
1691757639717431,-0.12449849,0.25857377,9.57680702,-0.00426106,0.02450108,-0.03302320
1691757639719429,-0.28730419,0.24899697,9.64863300,0.01704423,0.02876214,-0.00958738
1691757639721425,-0.25378537,0.14844051,9.60074902,0.02663161,0.02237055,-0.00639159
1691757639723509,-0.03351882,0.31124622,9.56723022,0.03515373,0.01597897,0.00000000
1691757639725401,-0.23463176,0.15322891,9.70609379,0.04687164,0.01278317,0.00852212
1691757639727380,-0.15322891,0.18674773,9.62469101,0.05752428,-0.00319579,-0.00426106
1691757639729415,-0.16280572,0.28251579,9.77791977,0.06072007,-0.00852212,-0.02024002
1691757639731469,-0.21547815,0.22026655,9.75397778,0.05326322,-0.00745685,0.00106526
1691757639733441,-0.01915361,0.48362875,9.69651699,0.03834952,-0.01065264,-0.00106526
1691757639735528,-0.18674773,-0.30166942,9.93593693,0.03515373,-0.00426106,-0.01491370
1691757639737377,-0.03351882,-0.33518824,9.78270817,0.02769688,-0.01704423,-0.00213053
1691757639739339,-0.02873042,-0.57460839,9.82101536,0.01065264,-0.03728426,-0.00958738
1691757639741461,0.23942018,-0.55066639,9.59117222,0.01065264,-0.03195793,-0.02237055
1691757639743443,0.16280572,-0.32561144,9.69172859,0.01065264,-0.02663161,-0.01810949
1691757639745422,-0.02394202,-0.32082301,9.72524738,0.02237055,-0.02237055,0.00639159
1691757639747409,0.06703765,-0.05746084,9.61990261,0.03195793,-0.00958738,0.00213053
1691757639749449,-0.19632454,-0.14844051,9.91199493,0.02769688,0.01597897,0.00852212
1691757639751454,-0.01915361,-0.08619126,9.73482418,0.02024002,0.02876214,0.00426106
1691757639753447,-0.00478840,0.08140286,9.87847614,0.02130529,0.03621899,0.01065264
1691757639755488,-0.23463176,-0.03351882,9.96466732,0.01597897,0.04154531,0.01065264
1691757639757358,-0.00957681,0.16280572,9.78270817,0.00639159,0.04367584,0.01491370
1691757639759443,-0.33518824,0.04309563,10.12268448,0.01065264,0.04580637,0.00000000
1691757639761349,-0.17717093,0.03830723,9.90720654,0.01704423,0.03728426,0.00213053
1691757639763412,-0.08619126,0.16759412,9.93114853,0.01810949,0.03515373,-0.01171791
1691757639765370,-0.31603462,-0.07661445,10.07480049,0.01810949,0.03834952,-0.00639159
1691757639767415,0.08140286,0.18195933,9.79228497,0.03408846,0.05006743,-0.01810949
1691757639769445,-0.18674773,0.23942018,10.09395409,0.03621899,0.04474111,-0.01917476
1691757639771404,-0.10534488,0.21068975,9.99818611,0.05326322,0.03621899,-0.00852212
1691757639773652,0.01915361,0.33997664,9.97903252,0.06391586,0.03728426,-0.00319579
1691757639775567,-0.32561144,0.06703765,10.19451046,0.07030746,0.02982740,-0.01171791
1691757639777388,0.07661445,0.21068975,9.91678333,0.05752428,0.02663161,-0.01384844
1691757639779394,0.06703765,0.28730419,10.03649330,0.04580637,0.02450108,-0.01065264
1691757639781432,-0.08140286,0.01436521,10.14183807,0.03834952,0.02237055,-0.01704423
1691757639783431,0.00957681,0.13407530,9.93593693,0.03408846,0.02663161,-0.01384844
1691757639785420,-0.26815060,0.15322891,10.28070164,0.03195793,0.03195793,-0.01810949
1691757639787380,-0.12928689,-0.04788403,10.15141487,0.02663161,0.03408846,-0.01384844
1691757639789502,-0.16759412,0.05267244,10.16578007,0.03621899,0.03408846,-0.00639159
1691757639791456,-0.30166942,0.15322891,10.25197124,0.03941479,0.03408846,-0.01597897
1691757639793475,-0.01915361,0.11492168,9.98860931,0.04048005,0.02024002,-0.01491370
1691757639795407,-0.29688102,0.10055647,10.26633644,0.03941479,0.02237055,-0.01597897
1691757639797440,-0.20111294,-0.04788403,10.14183807,0.04048005,0.02556635,-0.01171791
1691757639799450,-0.01436521,0.08619126,9.98382092,0.05113269,0.01278317,-0.01065264
1691757639801559,-0.17238252,0.11013328,10.10831928,0.05432849,0.01384844,-0.00213053
1691757639803436,-0.07182605,0.14365210,9.93114853,0.06391586,0.01491370,0.00319579
1691757639805587,-0.07661445,0.25857377,10.06043530,0.06711166,0.01278317,0.00213053
1691757639807448,-0.09097967,0.13886370,9.91199493,0.05006743,-0.00319579,-0.00426106
1691757639809424,-0.04788403,0.13407530,9.87368774,0.04048005,-0.00532632,-0.00426106
1691757639811405,-0.37349546,0.05746084,10.16578007,0.03089267,-0.01597897,-0.01278317
1691757639813433,-0.16759412,0.04309563,9.97903252,0.04261058,-0.02237055,-0.01704423
1691757639815437,-0.18674773,0.11013328,10.04128170,0.04580637,-0.02769688,-0.01278317
1691757639817408,-0.07182605,0.07661445,10.02212811,0.04687164,-0.02663161,-0.00426106
1691757639819407,0.02394202,0.09097967,9.96466732,0.03195793,-0.01704423,-0.00852212
1691757639821408,-0.20111294,0.08140286,10.12268448,0.02024002,0.00319579,-0.00426106
1691757639823454,-0.09097967,0.11492168,10.02212811,0.01704423,0.00639159,0.00426106
1691757639825465,-0.20590134,0.22505496,10.15141487,0.02024002,0.03195793,-0.00426106
1691757639827405,-0.22505496,0.13886370,10.14662647,0.02343582,0.03834952,-0.01171791
1691757639829428,-0.14844051,-0.04309563,10.06522369,0.02982740,0.04367584,-0.01810949
1691757639831420,-0.22984336,0.23463176,10.15141487,0.03941479,0.04687164,-0.01704423
1691757639833553,-0.13407530,0.22505496,10.13704967,0.04580637,0.05326322,-0.03089267
1691757639835472,-0.23942018,0.18195933,10.22324085,0.05645901,0.05752428,-0.02343582
1691757639837384,-0.12449849,0.31124622,10.19451046,0.04687164,0.06711166,-0.02130529
1691757639839439,-0.22026655,0.09576806,10.20887566,0.03834952,0.08309063,-0.01384844
1691757639841413,-0.24420857,0.17717093,10.13226128,0.02769688,0.09054748,-0.02982740
1691757639843518,-0.15801731,0.08619126,10.08916569,0.03408846,0.11717909,-0.02024002
1691757639845363,-0.26336220,0.07661445,10.13704967,0.04261058,0.13315806,-0.01384844
1691757639847418,-0.11971009,0.16280572,9.95509052,0.06498113,0.14807175,-0.00319579
1691757639849481,-0.13886370,0.05746084,10.02691650,0.06711166,0.15446334,-0.00319579
1691757639851445,-0.24420857,0.21068975,10.03649330,0.06604639,0.14700650,-0.00319579
1691757639853456,-0.04788403,0.16759412,9.92157173,0.05965481,0.13102752,0.00000000
1691757639855441,-0.29209262,0.05267244,10.10353088,0.04900216,0.10759171,-0.00319579
1691757639857444,-0.03830723,0.25378537,9.94072533,0.05113269,0.07989483,0.01065264
1691757639859415,-0.00957681,0.05267244,9.99818611,0.04261058,0.05006743,-0.00958738
1691757639861441,-0.16759412,0.15322891,10.04607010,0.04580637,0.03302320,-0.00426106
1691757639863411,0.25857377,0.23463176,9.93114853,0.04580637,0.02450108,-0.00852212
1691757639865468,-0.14365210,-0.03351882,10.12268448,0.05432849,0.01065264,-0.00639159
1691757639867427,0.00478840,0.20590134,9.93114853,0.05432849,0.00852212,-0.02130529
1691757639869429,-0.10055647,-0.01915361,10.08437729,0.04793690,0.01810949,-0.00958738
1691757639871421,-0.21547815,0.08619126,10.00776291,0.03621899,0.03195793,-0.02556635
1691757639873450,0.19632454,0.24420857,9.82101536,0.02450108,0.03941479,-0.01171791
1691757639875509,-0.14365210,-0.04788403,10.07480049,0.02663161,0.04367584,-0.01278317
1691757639877346,-0.00478840,0.25378537,9.92636013,0.02450108,0.04261058,-0.01278317
1691757639879411,-0.02394202,0.04788403,9.97903252,0.02343582,0.02982740,-0.02024002
1691757639881402,-0.31124622,0.04788403,10.07480049,0.00852212,0.00852212,-0.01810949
1691757639883487,0.05746084,0.06703765,10.01255131,0.02450108,-0.02130529,-0.01491370
1691757639885482,-0.16759412,-0.16759412,10.10831928,0.02556635,-0.03515373,-0.01278317
1691757639887428,0.06224924,0.21547815,9.96466732,0.02450108,-0.04048005,-0.00958738
1691757639889445,0.13407530,0.12928689,9.97424412,0.03408846,-0.05113269,-0.01491370
1691757639891488,-0.00957681,0.15322891,9.93593693,0.04793690,-0.04367584,-0.02343582
1691757639893454,0.10534488,0.30166942,9.89284134,0.04474111,-0.03515373,-0.01384844
1691757639895447,-0.27293900,-0.09097967,10.06043530,0.03195793,-0.01384844,-0.01704423
1691757639897413,-0.16280572,0.12449849,9.91199493,0.03728426,-0.00426106,-0.00426106
1691757639899470,-0.13886370,0.04788403,9.86889935,0.02024002,0.01065264,-0.01597897
1691757639901462,-0.30166942,-0.01436521,10.06043530,0.01704423,0.02024002,-0.01491370
1691757639903446,-0.05267244,0.23942018,9.89762974,0.02343582,0.02130529,-0.00639159
1691757639905415,-0.23942018,0.00478840,10.02691650,0.02769688,0.02769688,-0.00532632
1691757639907407,-0.12449849,0.23463176,9.95509052,0.02982740,0.02024002,-0.01810949
1691757639909472,-0.11492168,0.22984336,9.92157173,0.03408846,0.01278317,-0.01278317
1691757639911442,-0.19153613,-0.00478840,9.98382092,0.03195793,0.01171791,-0.00319579
1691757639913425,-0.00957681,0.21547815,9.88805294,0.02663161,-0.00532632,-0.01171791
1691757639915422,-0.18674773,0.03830723,9.95987892,0.03302320,-0.01917476,-0.01171791
1691757639917432,0.05267244,0.25857377,9.85932255,0.03195793,-0.01491370,-0.00958738
1691757639919458,-0.15801731,0.02873042,9.95509052,0.02343582,-0.01704423,-0.02130529
1691757639921356,-0.02873042,0.19632454,9.82580376,0.01810949,-0.02450108,-0.02343582
1691757639923450,-0.14844051,0.20590134,9.94551373,0.01171791,-0.01597897,-0.02130529
1691757639925528,-0.08619126,0.07661445,9.91199493,0.00532632,-0.01384844,-0.03089267
1691757639927418,0.10055647,0.26336220,9.90720654,-0.00745685,-0.00745685,-0.03515373
1691757639929412,-0.22026655,-0.02394202,10.05085850,-0.00958738,0.00106526,-0.02024002
1691757639931471,0.02394202,0.15801731,9.86411095,-0.00745685,-0.00958738,-0.01704423
1691757639933491,-0.19153613,0.18195933,10.07480049,-0.01704423,-0.00745685,-0.02450108
1691757639935464,-0.13407530,0.06703765,9.97424412,-0.02237055,-0.01065264,-0.01065264
1691757639937395,0.04788403,0.22984336,9.95030212,-0.01917476,-0.02237055,-0.00532632
1691757639939439,-0.25378537,0.05746084,10.15620327,-0.02024002,-0.03515373,-0.01384844
1691757639941433,0.12449849,0.15801731,9.95030212,-0.03302320,-0.03621899,-0.01384844
1691757639943436,-0.11492168,0.14365210,10.17535686,-0.02237055,-0.04793690,-0.01491370
1691757639945455,-0.07661445,0.07661445,10.04607010,-0.01491370,-0.06178534,-0.01704423
1691757639947424,0.00957681,0.21547815,10.00776291,-0.01384844,-0.06498113,-0.02024002
1691757639949553,-0.25378537,0.12449849,10.19451046,-0.01597897,-0.06604639,-0.01597897
1691757639951449,0.10055647,0.16280572,9.91678333,-0.01384844,-0.06178534,-0.02024002
1691757639953447,-0.15801731,0.12928689,10.18493366,-0.01491370,-0.05539375,-0.01065264
1691757639955408,-0.14844051,0.13886370,10.07958889,-0.01704423,-0.04048005,-0.01171791
1691757639957418,-0.02394202,0.20590134,9.98860931,-0.00213053,-0.02450108,-0.00213053
1691757639959493,-0.34476504,0.16280572,10.21366405,0.00852212,-0.00852212,-0.01597897
1691757639961494,-0.07182605,0.20590134,9.92157173,0.00106526,0.00213053,-0.02450108
1691757639963430,-0.26336220,0.01915361,10.20887566,-0.01384844,0.02343582,-0.00532632
1691757639965502,-0.33518824,-0.03830723,10.14183807,-0.01491370,0.02343582,0.00106526
1691757639967432,-0.08619126,0.08619126,10.01255131,-0.02343582,0.03728426,0.00106526
1691757639969422,-0.37828386,0.09097967,10.29506683,-0.02663161,0.04154531,-0.00852212
1691757639971431,0.00000000,0.14844051,9.91678333,-0.02130529,0.04900216,-0.00745685
1691757639973433,-0.08619126,0.12928689,10.07958889,-0.02237055,0.05113269,-0.01491370
1691757639975495,-0.27772740,0.06224924,10.06043530,-0.02982740,0.05113269,-0.01917476
1691757639977429,-0.12928689,0.12449849,9.85453415,-0.03195793,0.05219796,-0.01917476
1691757639979424,-0.41659111,0.06224924,10.15141487,-0.04154531,0.04154531,-0.01278317
1691757639981434,-0.10055647,0.01436521,9.88326454,-0.04793690,0.04154531,-0.01171791
1691757639983488,-0.05746084,0.08619126,9.96466732,-0.03408846,0.02876214,-0.01171791
1691757639985435,-0.12928689,0.14365210,10.04607010,-0.02769688,0.02237055,-0.00958738
1691757639987411,0.01915361,0.18674773,9.91678333,-0.01597897,0.01384844,-0.01491370
1691757639989409,-0.20111294,0.25378537,10.12747288,-0.00213053,0.00000000,-0.01065264
1691757639991468,-0.13407530,0.07661445,10.09874249,0.00000000,-0.02343582,-0.00852212
1691757639993576,-0.06224924,0.04788403,10.01255131,0.00319579,-0.05326322,-0.00639159
1691757639995449,-0.06703765,0.10055647,10.08437729,0.02237055,-0.07243798,-0.01278317
1691757639997352,0.05267244,0.11013328,9.98382092,0.02556635,-0.08096009,-0.02024002
1691757639999449,-0.03830723,0.04309563,9.98382092,0.01171791,-0.08628642,-0.03195793
1691757640001461,-0.07182605,0.12449849,9.99339771,0.00745685,-0.09587380,-0.04048005
1691757640003480,-0.04309563,-0.08619126,9.85932255,-0.00639159,-0.07456851,-0.02876214
1691757640005548,-0.12449849,0.09097967,9.92636013,-0.01384844,-0.01917476,-0.04154531
1691757640007401,-0.26336220,-0.04309563,9.69651699,-0.03195793,0.01384844,0.00532632
1691757640009458,-0.23942018,0.06703765,9.69651699,-0.03728426,0.04154531,-0.00213053
1691757640011475,-0.18674773,0.13886370,9.62469101,-0.02343582,0.09906960,0.01171791
1691757640013435,-0.31603462,-0.00478840,9.60553741,-0.02556635,0.15020229,-0.00639159
1691757640015445,-0.40222588,0.21068975,9.53849983,-0.02982740,0.16937704,-0.00958738
1691757640017443,-0.37349546,-0.02873042,9.44752026,-0.00639159,0.18642128,-0.04261058
1691757640019459,-0.50757074,0.10534488,9.47146225,0.01065264,0.20240024,-0.03302320
1691757640021435,-0.22026655,0.16759412,9.29429054,0.01810949,0.18535601,-0.02556635
1691757640023400,-0.22984336,0.01436521,9.33738708,0.00745685,0.17257284,-0.01491370
1691757640025466,-0.09576806,0.20590134,9.21767616,0.02982740,0.13741912,-0.00745685
1691757640027406,0.07182605,0.16759412,9.19373417,0.02024002,0.13635385,0.00000000
1691757640029430,-0.25378537,0.22026655,9.49061584,0.01278317,0.12357067,0.00745685
1691757640031441,0.00957681,0.25378537,9.34217548,0.00958738,0.07989483,-0.00532632
1691757640033464,0.17717093,0.10534488,9.27992535,-0.00213053,0.08415589,-0.00532632
1691757640035416,-0.29688102,0.06703765,9.50019264,-0.00958738,0.07456851,-0.00958738
1691757640037433,0.21068975,0.03351882,9.30386734,-0.02130529,0.05006743,-0.00852212
1691757640039413,-0.09576806,0.01436521,9.59596062,-0.03195793,0.03408846,-0.00426106
1691757640041403,-0.05267244,0.13407530,9.58638382,-0.03089267,0.02343582,-0.01171791
1691757640043467,-0.11492168,-0.02394202,9.69651699,-0.01171791,0.00639159,-0.00532632
1691757640045494,-0.25857377,0.21068975,9.82101536,-0.01810949,0.00319579,-0.00852212
1691757640047412,0.15322891,0.21068975,9.62947941,-0.02769688,-0.00106526,-0.01171791
1691757640049426,-0.11492168,-0.02394202,9.82580376,-0.01810949,-0.00213053,-0.01810949
1691757640051515,-0.10055647,0.10534488,9.84016895,-0.01597897,0.01384844,-0.02024002
1691757640053456,0.10055647,-0.01436521,9.77791977,-0.01704423,0.00639159,-0.02024002
1691757640055425,-0.12928689,0.10534488,9.97424412,-0.04900216,0.01597897,-0.01704423
1691757640057419,0.08619126,0.25857377,9.85453415,-0.04687164,0.01597897,-0.01917476
1691757640059482,-0.35913026,0.03830723,10.10353088,-0.03515373,0.01065264,-0.01597897
1691757640061453,0.04309563,0.28251579,9.94072533,-0.03302320,0.01384844,-0.00958738
1691757640063462,-0.00478840,0.03351882,9.95030212,-0.03834952,0.02450108,-0.00745685
1691757640065448,-0.34476504,0.01915361,10.11789608,-0.04580637,0.03302320,-0.01278317
1691757640067437,-0.02394202,0.22026655,9.90720654,-0.04580637,0.03408846,-0.01384844
1691757640069461,-0.34476504,0.04309563,10.07001209,-0.04474111,0.04474111,-0.01278317
1691757640071472,-0.14365210,0.32082301,10.01733971,-0.03728426,0.05006743,-0.01065264
1691757640073438,-0.03830723,0.06703765,9.91199493,-0.02450108,0.06178534,-0.01278317
1691757640075431,-0.26336220,0.06703765,10.00776291,-0.00852212,0.06178534,-0.00852212
1691757640077390,-0.09576806,0.34955344,9.86411095,-0.00319579,0.04687164,0.00106526
1691757640079434,-0.28251579,0.04788403,10.05085850,0.00319579,0.03941479,0.01171791
1691757640081593,-0.12449849,0.30166942,9.94551373,0.00852212,0.03621899,0.00958738
1691757640083439,-0.19632454,-0.13886370,9.94551373,-0.01491370,0.01810949,0.01065264
1691757640085569,-0.15322891,0.01915361,9.96945572,-0.02237055,0.00639159,0.01171791
1691757640087438,-0.12928689,0.02394202,9.88805294,-0.02343582,0.01704423,0.00639159
1691757640089440,-0.20111294,-0.19632454,9.94072533,-0.03515373,0.01597897,0.00852212
1691757640091479,-0.06224924,0.26336220,9.79228497,-0.04687164,0.01491370,0.01278317
1691757640093507,-0.18195933,0.08619126,9.77313137,-0.03834952,0.02876214,0.00532632
1691757640095637,-0.20111294,-0.07182605,9.72524738,-0.01917476,0.03834952,-0.00745685
1691757640097392,-0.17717093,0.12449849,9.79228497,-0.01491370,0.03941479,0.01065264
1691757640099453,-0.27293900,-0.15801731,9.87847614,-0.00958738,0.04261058,0.01384844
1691757640101487,-0.04788403,0.25378537,9.68694019,0.00106526,0.04687164,-0.00106526
1691757640103470,-0.18195933,0.20111294,9.79707336,0.02237055,0.04793690,-0.01065264
1691757640105450,-0.08140286,0.19632454,9.77791977,0.00745685,0.04687164,0.00000000
1691757640107415,-0.00957681,0.35913026,9.75397778,0.00319579,0.05858954,-0.00213053
1691757640109467,-0.35434186,-0.11013328,9.94551373,-0.00426106,0.08096009,-0.01171791
1691757640111428,-0.08619126,0.17238252,9.67257500,0.00958738,0.10759171,0.00106526
1691757640113453,-0.21547815,0.25857377,9.78270817,0.01917476,0.15020229,0.02450108
1691757640115428,-0.38786069,-0.14844051,9.81143856,0.01491370,0.18748654,0.00213053
1691757640117514,-0.01436521,0.38786069,9.54807663,-0.00745685,0.21092236,0.00213053
1691757640119471,-0.43574470,0.03830723,9.83059216,-0.01278317,0.19920444,-0.00532632
1691757640121479,-0.18674773,0.16280572,9.66299820,-0.00532632,0.18216021,0.01065264
1691757640123415,-0.10534488,0.35913026,9.69651699,-0.00426106,0.15765914,-0.01171791
1691757640125531,-0.44532153,-0.06224924,9.77791977,0.00426106,0.12889700,-0.00213053
1691757640127447,0.07182605,0.33518824,9.69172859,-0.01065264,0.07456851,-0.00532632
1691757640129474,-0.18674773,-0.05267244,9.86411095,-0.00852212,0.04261058,-0.00106526
1691757640131490,0.04309563,-0.03830723,9.66778660,0.00106526,0.02024002,-0.00852212
1691757640133442,0.07182605,0.22505496,9.72045898,-0.00319579,-0.00532632,-0.00745685
1691757640135474,-0.17238252,0.08140286,9.81622696,-0.01810949,-0.01491370,0.00745685
1691757640137435,0.09097967,0.20590134,9.66299820,0.00958738,0.02130529,0.00106526
1691757640139527,-0.13407530,0.11971009,9.77313137,0.01384844,0.05326322,0.00319579
1691757640141446,0.03351882,0.32082301,9.45709705,0.01491370,0.07882957,0.00213053
1691757640143517,-0.10534488,0.16280572,9.58159542,0.01597897,0.11717909,0.02130529
1691757640145453,-0.21068975,-0.00478840,9.61032581,0.01171791,0.12037488,-0.00106526
1691757640147369,-0.07661445,0.21068975,9.50019264,-0.00639159,0.11717909,0.00213053
1691757640149501,-0.20111294,0.24899697,9.73961258,-0.02556635,0.10439591,-0.00426106
1691757640151478,-0.12449849,0.04788403,9.68215179,-0.03195793,0.08096009,-0.00852212
1691757640153488,0.06224924,0.18195933,9.59596062,-0.04048005,0.05113269,-0.02556635
1691757640155427,-0.22026655,0.01436521,9.83059216,-0.05752428,0.02876214,-0.01704423
1691757640157350,0.00957681,-0.02394202,9.64384460,-0.04900216,0.01384844,-0.01597897
1691757640159451,-0.07661445,-0.02394202,9.84495735,-0.03621899,-0.02982740,-0.01597897
1691757640161679,-0.03830723,0.05267244,9.86889935,-0.03728426,-0.02769688,-0.00532632
1691757640163436,-0.06224924,0.02394202,9.89284134,-0.02556635,-0.05113269,0.01171791
1691757640165539,-0.08619126,0.31603462,9.92157173,-0.01917476,-0.05539375,0.00426106
1691757640167402,-0.04788403,0.10055647,9.82101536,-0.00745685,-0.04367584,-0.00319579
1691757640169464,-0.08619126,0.07661445,9.90720654,-0.01704423,-0.03728426,-0.01704423
1691757640171453,-0.13886370,0.14365210,9.91199493,-0.01384844,-0.02663161,-0.02876214
1691757640173453,-0.17717093,0.04309563,9.84974575,-0.00639159,0.00213053,-0.00852212
1691757640175482,-0.27772740,0.19632454,9.97424412,0.01597897,0.00745685,-0.00426106
1691757640177425,-0.24899697,0.11492168,9.95509052,0.00319579,0.02130529,-0.00426106
1691757640179526,-0.13886370,0.10534488,10.03170490,-0.01278317,0.02556635,0.00426106
1691757640181416,-0.14365210,0.12449849,9.97903252,-0.01597897,0.01491370,0.00958738
1691757640183453,-0.25857377,0.06703765,10.01255131,-0.01704423,0.01491370,0.00958738
1691757640185493,-0.33039984,0.09097967,10.11789608,-0.02663161,0.00745685,0.00106526
1691757640187444,-0.12449849,0.08619126,10.03649330,-0.03302320,0.00639159,-0.00319579
1691757640189429,-0.15801731,0.00000000,10.13704967,-0.02130529,0.01065264,0.00000000
1691757640191444,-0.01915361,0.19632454,9.97903252,-0.01384844,0.03728426,0.01491370
1691757640193586,-0.16280572,0.25857377,10.02212811,-0.00958738,0.06498113,0.02024002
1691757640195443,-0.29209262,0.28730419,10.07480049,0.01384844,0.09587380,0.01917476
1691757640197442,-0.14844051,0.20111294,9.90241814,0.02450108,0.09693906,0.02450108
1691757640199425,-0.28251579,0.02873042,10.08916569,0.00532632,0.08096009,0.02130529
1691757640201508,-0.10055647,0.08619126,9.94551373,-0.00106526,0.06817693,0.02024002
1691757640203542,-0.27772740,0.01915361,10.10353088,0.01597897,0.04261058,0.00852212
1691757640205448,-0.23942018,0.22984336,10.11310768,0.00532632,0.02130529,0.01704423
1691757640207395,0.11971009,0.33039984,9.98860931,-0.01704423,-0.01065264,0.00213053
1691757640209419,-0.18195933,0.06703765,10.19451046,-0.01491370,-0.03195793,0.00639159
1691757640211487,0.03830723,0.06224924,10.03649330,-0.02024002,-0.03195793,-0.01384844
1691757640213483,-0.01436521,0.01915361,10.10831928,-0.02556635,-0.04154531,0.00426106
1691757640215433,-0.09097967,0.11013328,10.19929886,-0.02024002,-0.05326322,-0.00958738
1691757640217398,0.16759412,0.16280572,10.04607010,-0.00426106,-0.05752428,-0.00745685
1691757640219578,-0.17238252,0.16280572,10.19451046,-0.02450108,-0.05006743,-0.02982740
1691757640221431,0.05267244,0.25378537,10.05085850,-0.02876214,-0.05326322,-0.01917476
1691757640223422,-0.12928689,0.00000000,10.11789608,-0.02556635,-0.05752428,-0.02130529
1691757640225432,-0.20590134,0.02873042,10.16099167,-0.02876214,-0.04154531,-0.01810949
1691757640227449,0.00478840,0.03351882,10.00297451,-0.03195793,-0.03834952,-0.00852212
1691757640229493,-0.26336220,0.14844051,10.18014526,-0.02982740,-0.03089267,0.00426106
1691757640231445,0.02394202,0.28730419,10.00297451,-0.01597897,-0.03302320,-0.00426106
1691757640233430,-0.14365210,0.07661445,10.07958889,-0.02556635,-0.02237055,-0.01065264
1691757640235479,-0.21547815,0.23463176,10.18972206,-0.02450108,-0.01704423,0.00319579
1691757640237447,-0.05746084,0.00000000,10.05085850,-0.00639159,-0.02130529,-0.00958738
1691757640239420,-0.37828386,0.02873042,10.21845245,0.00106526,-0.01810949,-0.01384844
1691757640241439,-0.02394202,0.21068975,10.10831928,-0.00532632,-0.02130529,-0.00958738
1691757640243478,-0.09576806,0.00478840,10.18493366,-0.01171791,-0.02450108,0.00745685
1691757640245475,-0.12449849,0.31603462,10.22802925,-0.00958738,-0.03834952,0.00426106
1691757640247445,-0.00478840,0.08140286,10.12268448,-0.00213053,-0.05219796,0.00852212
1691757640249417,-0.27772740,0.15801731,10.26633644,-0.00852212,-0.06924219,0.01065264
1691757640251467,-0.01915361,0.19153613,10.19451046,-0.02237055,-0.07350325,-0.00639159
1691757640253526,-0.09097967,-0.17238252,10.21845245,-0.02024002,-0.07989483,-0.00745685
1691757640255491,0.00478840,0.31603462,10.24239445,-0.02450108,-0.08628642,-0.00106526
1691757640257433,0.02873042,0.10534488,10.26633644,-0.03515373,-0.08735169,-0.00319579
1691757640259494,-0.15801731,0.14844051,10.36210537,-0.02450108,-0.08415589,-0.01171791
1691757640261475,-0.02394202,0.24420857,10.28070164,-0.01171791,-0.07563377,-0.00106526
1691757640263527,-0.15322891,-0.15801731,10.29506683,-0.01171791,-0.07669904,-0.00745685
1691757640265425,-0.04788403,0.35434186,10.30943298,-0.02237055,-0.08522116,-0.00745685
1691757640267455,-0.03351882,-0.08619126,10.36689377,-0.02130529,-0.08415589,-0.01278317
1691757640269481,-0.07661445,0.19153613,10.39083576,-0.01171791,-0.08096009,-0.01384844
1691757640271500,-0.04309563,0.38786069,10.35252857,0.00319579,-0.08309063,-0.00532632
1691757640273433,-0.20590134,-0.16759412,10.35252857,0.00639159,-0.08841695,-0.00639159
1691757640275511,-0.05746084,0.33039984,10.31422138,0.00106526,-0.09374327,-0.00426106
1691757640277349,-0.10534488,-0.17717093,10.40520096,0.00532632,-0.10226539,-0.00745685
1691757640279472,-0.02394202,0.39743748,10.27112484,-0.00958738,-0.11398330,-0.00426106
1691757640281455,-0.09576806,0.31124622,10.36689377,-0.01597897,-0.11611383,-0.02237055
1691757640283470,-0.17238252,-0.17238252,10.37168217,-0.03515373,-0.13209279,-0.01917476
1691757640285511,0.02394202,0.37349546,10.29985619,-0.05006743,-0.14700650,-0.02237055
1691757640287444,-0.18674773,-0.24899697,10.44829655,-0.05858954,-0.16192019,-0.01491370
1691757640289454,0.02394202,0.01436521,10.22324085,-0.06178534,-0.15765914,-0.01917476
1691757640291419,-0.06703765,0.30166942,10.23281765,-0.05326322,-0.15872440,-0.00745685
1691757640293452,-0.13886370,-0.02394202,10.24239445,-0.03728426,-0.15446334,-0.00852212
1691757640295487,-0.14365210,0.27772740,10.10353088,-0.01810949,-0.15233281,0.00745685
1691757640297471,-0.26336220,0.03351882,10.13704967,-0.01171791,-0.14700650,0.00532632
1691757640299444,-0.02873042,0.51714754,9.88805294,0.01171791,-0.14807175,0.00532632
1691757640301423,-0.22026655,0.25378537,9.98382092,0.02982740,-0.13315806,0.00958738
1691757640303498,-0.27772740,-0.00478840,9.97424412,0.03302320,-0.09800433,0.02130529
1691757640305469,-0.02394202,0.56024319,9.66299820,0.05539375,-0.05432849,0.02237055
1691757640307397,-0.29209262,0.26815060,9.85932255,0.06285060,-0.01171791,0.01810949
1691757640309556,-0.19153613,0.19632454,9.65342140,0.07882957,0.02450108,0.00639159
1691757640311471,-0.15322891,0.34955344,9.64863300,0.06391586,0.05219796,0.00426106
1691757640313477,-0.51714754,-0.06703765,9.80186176,0.05113269,0.04900216,-0.00106526
1691757640315442,-0.22026655,0.26336220,9.45709705,0.03515373,0.03621899,0.00745685
1691757640317407,-0.39743748,0.10534488,9.67736340,0.03941479,0.01917476,-0.00426106
1691757640319471,-0.22026655,-0.02394202,9.55765343,0.04048005,-0.01065264,0.00639159
1691757640321467,0.10055647,0.24420857,9.52892303,0.02663161,-0.04048005,-0.01171791
1691757640323419,-0.27293900,-0.08619126,9.80186176,0.04048005,-0.06604639,-0.00319579
1691757640325416,0.10534488,0.14365210,9.51455784,0.04367584,-0.08841695,-0.01810949
1691757640327472,-0.10055647,0.12928689,9.76355457,0.01597897,-0.10865697,-0.00319579
1691757640329456,-0.13407530,-0.07661445,9.70609379,0.00426106,-0.10652644,-0.00532632
1691757640331438,0.01915361,0.10055647,9.48582745,-0.00426106,-0.10333065,-0.00532632
1691757640333416,-0.18674773,0.02394202,9.71088219,-0.03941479,-0.09587380,0.00000000
1691757640335489,0.05267244,0.07661445,9.48103905,-0.05858954,-0.09693906,0.00532632
1691757640337440,-0.32561144,0.06703765,9.78749657,-0.03621899,-0.07882957,0.00106526
1691757640339465,-0.12928689,0.02394202,9.75876617,-0.02769688,-0.07882957,-0.01171791
1691757640341422,-0.04309563,0.20111294,9.62947941,-0.03089267,-0.07243798,-0.01278317
1691757640343461,-0.25378537,0.23942018,9.84974575,-0.01917476,-0.07137272,-0.00532632
1691757640345522,-0.09576806,0.11971009,9.68694019,0.00000000,-0.07669904,-0.00639159
1691757640347421,-0.18195933,0.17238252,9.74440098,0.00213053,-0.08628642,-0.00106526
1691757640349417,-0.12928689,0.15322891,9.80186176,-0.00958738,-0.10333065,0.00852212
1691757640351419,-0.05746084,0.01915361,9.77791977,0.00532632,-0.11291803,0.02237055
1691757640353606,-0.06224924,0.22026655,9.86889935,-0.00958738,-0.12570120,0.00958738
1691757640355448,-0.00957681,0.21068975,9.83059216,-0.02130529,-0.12676647,0.01810949
1691757640357402,-0.09576806,0.13407530,9.89284134,-0.01597897,-0.13954964,0.01278317
1691757640359437,-0.07182605,0.23463176,9.90241814,0.00000000,-0.13635385,0.01597897
1691757640361494,-0.08140286,0.00957681,9.88326454,-0.00958738,-0.11824435,0.02130529
1691757640363457,-0.22505496,0.16280572,10.06522369,-0.01917476,-0.11398330,0.02450108
1691757640365441,-0.15322891,0.11971009,9.98860931,-0.01491370,-0.10972223,0.02982740
1691757640367428,-0.23942018,0.00478840,10.04128170,-0.01065264,-0.08202536,0.02450108
1691757640369487,-0.11971009,0.24899697,9.98860931,0.01278317,-0.06178534,0.03941479
1691757640371475,-0.33518824,0.07182605,10.05085850,0.01278317,-0.00319579,0.04793690
1691757640373423,-0.33039984,0.19632454,10.03649330,0.01491370,0.02876214,0.03408846
1691757640375432,-0.32082301,0.11013328,9.82580376,0.02982740,0.06604639,0.02982740
1691757640377393,-0.45968673,0.10055647,9.93593693,0.01917476,0.08202536,0.02450108
1691757640379554,-0.38307226,0.26336220,9.86411095,0.01384844,0.08415589,0.01384844
1691757640381441,-0.19153613,0.02394202,9.85453415,0.02024002,0.06498113,-0.00426106
1691757640383431,-0.27293900,0.16280572,9.93114853,0.05113269,0.04580637,0.01704423
1691757640385426,-0.08619126,0.28730419,9.71567059,0.03408846,0.03728426,-0.00639159
1691757640387474,-0.24899697,0.19632454,9.89762974,0.02663161,0.00639159,-0.00106526
1691757640389440,-0.19153613,0.18674773,9.79228497,0.02876214,-0.00639159,0.00106526
1691757640391418,0.02873042,-0.00478840,9.68215179,0.03728426,-0.01917476,-0.00213053
1691757640393472,-0.34955344,0.00000000,9.86889935,0.04048005,-0.03195793,-0.01278317
1691757640395492,0.10055647,0.14844051,9.61032581,0.02982740,-0.00958738,-0.00106526
1691757640397435,-0.13886370,0.10055647,9.68215179,0.03941479,0.01810949,-0.00958738
1691757640399418,-0.22984336,0.33518824,9.60074902,0.03408846,0.05006743,-0.01491370
1691757640401447,0.02873042,0.23942018,9.40921307,0.03515373,0.08096009,0.00852212
1691757640403504,-0.37828386,0.04788403,9.71567059,0.00958738,0.11717909,0.00426106
1691757640405514,-0.13886370,0.04788403,9.42357826,0.00213053,0.12996227,0.00745685
1691757640407402,-0.27772740,-0.06224924,9.49540424,0.00213053,0.12463594,0.00106526
1691757640409431,-0.54108959,0.11492168,9.65342140,0.00639159,0.10972223,0.00106526
1691757640411496,-0.10055647,0.17238252,9.38048267,0.01491370,0.10013486,-0.00745685
1691757640413460,-0.31603462,0.10534488,9.67257500,0.02982740,0.10013486,-0.01278317
1691757640415453,-0.08619126,0.20111294,9.52413464,0.03834952,0.07882957,-0.00106526
1691757640417402,0.02394202,0.12449849,9.47625065,0.03621899,0.07989483,0.00532632
1691757640419452,-0.35434186,0.25378537,9.73482418,0.02556635,0.11078750,0.01065264
1691757640421467,-0.03351882,0.18195933,9.39963627,0.04793690,0.13528858,0.00000000
1691757640423421,-0.25378537,0.13407530,9.61032581,0.05965481,0.13528858,0.01704423
1691757640425417,-0.20111294,0.19153613,9.66299820,0.06285060,0.12889700,0.01278317
1691757640427402,-0.01915361,0.01436521,9.56244183,0.05326322,0.12889700,0.01065264
1691757640429612,-0.28730419,0.07182605,9.84495735,0.04793690,0.09800433,0.01917476
1691757640431424,0.01436521,0.15322891,9.68215179,0.02556635,0.06817693,0.02450108
1691757640433418,-0.12449849,0.06224924,9.86889935,0.02237055,0.04793690,0.02556635
1691757640435480,-0.13886370,0.16759412,9.91678333,0.01384844,0.04474111,0.00532632
1691757640437436,0.06703765,-0.01436521,9.73003578,-0.00106526,0.02876214,0.01171791
1691757640439458,-0.22505496,0.06703765,9.91199493,-0.01491370,0.01597897,0.00745685
1691757640441439,0.06224924,0.07182605,9.78270817,-0.02663161,0.01704423,0.01597897
1691757640443421,-0.10534488,-0.11013328,9.87368774,-0.02769688,0.04154531,0.01384844
1691757640445476,-0.09097967,0.24420857,9.88805294,-0.01278317,0.07137272,0.02130529
1691757640447449,-0.08619126,0.13407530,9.67257500,0.01917476,0.10546118,0.03834952
1691757640449430,-0.29688102,0.18674773,9.79228497,0.02982740,0.13209279,0.01597897
1691757640451422,-0.20111294,0.23942018,9.68215179,0.04900216,0.13528858,0.01278317
1691757640453457,-0.34476504,0.02394202,9.73003578,0.04261058,0.14381070,-0.00639159
1691757640455456,-0.23463176,0.20111294,9.78749657,0.03195793,0.13209279,0.01917476
1691757640457395,-0.18674773,0.01915361,9.70130539,0.02556635,0.11398330,0.00532632
1691757640459411,-0.22984336,0.07182605,9.73482418,0.01278317,0.08628642,0.02237055
1691757640461482,-0.02873042,0.22984336,9.75876617,0.00213053,0.07030746,-0.02130529
1691757640463433,-0.09576806,-0.08140286,9.82101536,0.00213053,0.04367584,-0.01278317
1691757640465439,0.10534488,0.15322891,9.75397778,0.00000000,0.01810949,-0.02450108
1691757640467425,-0.03351882,0.00478840,9.84974575,-0.00745685,-0.00213053,-0.02130529
1691757640469461,-0.09097967,0.00957681,9.90720654,-0.00639159,-0.03408846,-0.03728426
1691757640471503,0.12928689,0.35913026,9.96945572,-0.00639159,-0.04048005,-0.01704423
1691757640473491,-0.09097967,-0.03830723,10.07480049,-0.00319579,-0.05752428,-0.01704423
1691757640475456,0.14844051,0.24899697,9.95030212,-0.00319579,-0.07137272,-0.01810949
1691757640477465,-0.05746084,0.11492168,10.12747288,-0.00106526,-0.06498113,0.01384844
1691757640479461,-0.12928689,-0.04309563,10.10831928,-0.00532632,-0.05965481,-0.00106526
1691757640481417,0.05746084,0.28730419,10.08437729,-0.00958738,-0.05965481,0.00426106
1691757640483425,-0.27772740,-0.05267244,10.25197124,-0.03195793,-0.04687164,-0.00319579
1691757640485469,-0.00957681,0.25857377,10.08916569,-0.02450108,-0.04580637,0.00213053
1691757640487464,-0.12449849,0.18195933,10.31422138,-0.03089267,-0.04580637,0.00000000
1691757640489460,-0.19153613,0.04309563,10.27591324,-0.04048005,-0.04367584,-0.00319579
1691757640491492,0.01436521,0.28730419,10.19929886,-0.03834952,-0.04793690,-0.00639159
1691757640493435,-0.41180268,-0.06703765,10.36210537,-0.02876214,-0.04261058,-0.00532632
1691757640495474,0.00478840,0.33518824,10.16578007,-0.02450108,-0.03408846,-0.00745685
1691757640497485,-0.17717093,0.18674773,10.43871975,-0.02769688,-0.04793690,-0.01065264
1691757640499415,-0.18674773,0.04309563,10.35252857,-0.02769688,-0.05326322,-0.01810949
1691757640501449,0.04788403,0.30645782,10.23760605,-0.01704423,-0.05326322,-0.02556635
1691757640503476,-0.46447513,-0.01915361,10.44829655,-0.01810949,-0.05432849,-0.01704423
1691757640505520,0.02873042,0.37349546,10.17056847,-0.01278317,-0.04474111,-0.00639159
1691757640507472,-0.18674773,0.14844051,10.38125896,-0.00426106,-0.02556635,0.00532632
1691757640509427,-0.17717093,0.05746084,10.24239445,-0.00532632,-0.01065264,-0.00745685
1691757640511492,0.07182605,0.34476504,10.10831928,-0.01171791,0.00639159,-0.00213053
1691757640513497,-0.47884035,-0.01915361,10.36210537,-0.01171791,0.02130529,0.00106526
1691757640515582,-0.04309563,0.31603462,9.96466732,-0.01384844,0.02982740,-0.00852212
1691757640517403,-0.21068975,0.06703765,10.18972206,-0.01810949,0.03941479,-0.02130529
1691757640519495,-0.31603462,0.26815060,10.15141487,-0.00852212,0.02769688,-0.00426106
1691757640521501,0.03351882,0.98641109,10.02212811,-0.00106526,0.01917476,-0.00319579
1691757640523448,-0.43095630,0.90500826,10.29985619,-0.00958738,0.01278317,-0.00532632
1691757640525474,-0.56503159,0.90979666,10.23281765,-0.01597897,-0.00106526,-0.01171791
1691757640527428,-1.09175599,0.45489833,10.51054573,-0.00426106,-0.01171791,-0.00426106
1691757640529520,-0.60812724,0.67037648,10.14662647,0.00958738,0.00213053,-0.00745685
1691757640531567,-0.60812724,0.39264908,10.21366405,0.00319579,0.03408846,-0.00958738
1691757640533426,-0.68474168,0.25378537,10.11310768,-0.00213053,0.06072007,-0.00639159
1691757640535453,-0.44532153,0.42137951,9.90720654,0.01171791,0.07882957,-0.00532632
1691757640537455,-0.73741412,0.01915361,10.15141487,0.00852212,0.11078750,-0.00639159
1691757640539470,-0.39743748,0.27293900,9.84495735,0.00213053,0.11611383,0.00319579
1691757640541492,-0.39264908,0.10534488,9.90241814,-0.00319579,0.10546118,0.00745685
1691757640543439,-0.42137951,0.01436521,9.95030212,0.00639159,0.08522116,-0.00106526
1691757640545459,-0.09097967,0.33518824,9.79228497,-0.00106526,0.07776430,-0.00852212
1691757640547410,-0.30645782,0.06224924,9.97424412,0.00639159,0.06391586,-0.00532632
1691757640549432,-0.11971009,0.33518824,9.68694019,0.01278317,0.05965481,-0.00745685
1691757640551423,-0.15322891,0.23463176,9.72524738,0.01597897,0.06711166,-0.00852212
1691757640553472,-0.22505496,0.00478840,9.77791977,0.01065264,0.09374327,0.00213053
1691757640555438,-0.09576806,0.23463176,9.64863300,0.01917476,0.10546118,-0.00319579
1691757640557469,-0.26815060,-0.04788403,9.82580376,0.02237055,0.09693906,-0.00213053
1691757640559426,-0.10534488,0.24899697,9.67257500,0.01065264,0.08309063,-0.00532632
1691757640561479,-0.11971009,0.29688102,9.67736340,-0.00319579,0.06604639,-0.00532632
1691757640563549,-0.07661445,0.02873042,9.70130539,-0.01171791,0.03302320,-0.00958738
1691757640565490,0.05746084,0.26336220,9.67257500,-0.00319579,0.00745685,0.00745685
1691757640567404,-0.14365210,-0.03830723,9.82101536,-0.00532632,-0.02130529,0.01597897
1691757640569460,0.01436521,0.12449849,9.67736340,-0.01917476,-0.03089267,0.01597897
1691757640571499,-0.01915361,0.14844051,9.78749657,-0.02663161,-0.04048005,0.00532632
1691757640573438,0.01915361,0.05746084,9.78270817,-0.02663161,-0.04793690,0.00745685
1691757640575513,0.02873042,0.27293900,9.75876617,-0.03195793,-0.05858954,0.00639159
1691757640577399,-0.15322891,0.11971009,9.86411095,-0.02237055,-0.05219796,0.00745685
1691757640579469,0.00000000,0.13886370,9.74918938,-0.01278317,-0.06072007,-0.00213053
1691757640581518,-0.14365210,0.15801731,10.00297451,-0.00852212,-0.06285060,0.00639159
1691757640583490,-0.12928689,0.06224924,9.96945572,-0.01065264,-0.05645901,-0.00213053
1691757640585458,-0.08140286,0.16280572,9.95987892,-0.00852212,-0.06391586,-0.00319579
1691757640587453,-0.22505496,0.13886370,10.01733971,-0.01384844,-0.05752428,-0.01065264
1691757640589546,-0.04788403,0.14844051,9.79707336,-0.01384844,-0.03621899,-0.02237055
1691757640591437,-0.22984336,0.19153613,9.95987892,0.00532632,0.01278317,-0.00852212
1691757640593428,-0.26815060,0.12928689,9.78270817,-0.00319579,0.06178534,-0.00106526
1691757640595438,-0.18674773,0.13407530,9.74918938,0.00213053,0.09267800,0.00000000
1691757640597496,-0.45489833,-0.02873042,9.94551373,0.01065264,0.11078750,0.00213053
1691757640599431,-0.10534488,0.10055647,9.61511421,0.01810949,0.10972223,0.00426106
1691757640601419,-0.25857377,0.27293900,9.81622696,0.00852212,0.09800433,0.01704423
1691757640603493,-0.31603462,0.17717093,9.68694019,0.01810949,0.07243798,0.00852212
1691757640605458,0.12449849,0.26815060,9.53371143,0.00106526,0.04900216,0.02237055
1691757640607424,-0.38307226,0.05746084,9.81622696,-0.01278317,0.00958738,-0.00852212
1691757640609429,0.07661445,0.03830723,9.47146225,-0.01065264,-0.00532632,0.01597897
1691757640611449,-0.11492168,0.19632454,9.67257500,-0.00106526,-0.01810949,-0.00532632
1691757640613537,-0.18195933,0.05267244,9.63426781,0.01491370,-0.02130529,-0.00106526
1691757640615485,0.18195933,0.20590134,9.41878986,0.01065264,-0.00745685,0.00426106
1691757640617414,-0.27293900,0.25378537,9.71088219,0.00639159,0.01704423,0.01917476
1691757640619554,-0.02394202,0.19153613,9.30865574,0.00532632,0.06391586,0.00319579
1691757640621484,-0.12928689,0.30645782,9.46667385,0.02237055,0.10013486,-0.00213053
1691757640623447,-0.48362875,0.15322891,9.57680702,0.01917476,0.13741912,0.00213053
1691757640625428,-0.24899697,0.25857377,9.32302189,0.02237055,0.12676647,-0.01171791
1691757640627400,-0.50278234,0.21068975,9.68215179,0.02450108,0.14381070,-0.00106526
1691757640629485,-0.24420857,0.05746084,9.39005947,0.03941479,0.12570120,-0.00852212
1691757640631654,0.06224924,0.26336220,9.48103905,0.03515373,0.10652644,0.00000000
1691757640633444,-0.30645782,0.06224924,9.72524738,0.02450108,0.07563377,0.00745685
1691757640635421,0.12449849,0.20590134,9.38527107,0.01491370,0.06604639,0.00745685
1691757640637409,-0.14844051,0.32082301,9.72045898,0.01491370,0.03408846,-0.00639159
1691757640639589,-0.14844051,0.04788403,9.60074902,-0.00213053,0.02237055,0.00319579
1691757640641428,0.07661445,0.15801731,9.52413464,0.00106526,0.02876214,0.00532632
1691757640643430,-0.22505496,0.08619126,9.80186176,0.00000000,0.03834952,0.00000000
1691757640645465,0.03351882,0.14844051,9.46667385,0.01171791,0.05858954,0.00319579
1691757640647493,-0.18195933,0.28730419,9.68215179,0.02663161,0.08628642,0.01491370
1691757640649437,-0.22505496,0.16280572,9.66299820,0.05539375,0.11398330,0.01065264
1691757640651431,0.02394202,0.35434186,9.48103905,0.05006743,0.10865697,0.00532632
1691757640653441,-0.28730419,0.11971009,9.79707336,0.04580637,0.09800433,0.02343582
1691757640655524,-0.17717093,0.03830723,9.54807663,0.03621899,0.07350325,0.02024002
1691757640657418,-0.18195933,0.15322891,9.64863300,0.03089267,0.04793690,0.00000000
1691757640659423,-0.17238252,0.18195933,9.77791977,0.01704423,0.02663161,-0.00532632
1691757640661444,0.04309563,0.24899697,9.57201862,0.02024002,0.01491370,0.00639159
1691757640663488,-0.04788403,0.22026655,9.63905621,0.03302320,0.00319579,-0.00106526
1691757640665437,0.01436521,0.17238252,9.54328823,0.02663161,0.03089267,0.00532632
1691757640667405,0.02394202,0.26336220,9.50019264,0.02556635,0.04367584,0.00852212
1691757640669434,-0.24899697,0.07661445,9.71567059,0.03515373,0.06924219,-0.00745685
1691757640671551,-0.08140286,0.13886370,9.62469101,0.04154531,0.06391586,-0.02663161
1691757640673516,-0.24899697,0.14844051,9.73961258,0.02663161,0.06285060,-0.03089267
1691757640675431,-0.13886370,0.01915361,9.66299820,0.02876214,0.03302320,-0.01171791
1691757640677402,-0.05746084,0.19632454,9.61032581,0.02343582,0.02024002,-0.00319579
1691757640679457,-0.11013328,0.14365210,9.79228497,0.00000000,-0.00639159,-0.00213053
1691757640681566,-0.08619126,0.05746084,9.75397778,-0.01278317,-0.01171791,0.00213053
1691757640683433,-0.13886370,0.12449849,9.86889935,-0.00426106,-0.05645901,0.00000000
1691757640685421,-0.02873042,0.11492168,9.87368774,-0.01065264,-0.06817693,0.00852212
1691757640687445,-0.05746084,0.19632454,9.90241814,-0.00639159,-0.05432849,0.00745685
1691757640689475,-0.18195933,0.18674773,9.97903252,-0.00213053,-0.04261058,0.00852212
1691757640691451,-0.06703765,0.16759412,9.88805294,-0.00852212,-0.02876214,0.00213053
1691757640693432,-0.21068975,0.13886370,10.08437729,-0.01810949,0.01278317,0.00639159
1691757640695460,-0.13407530,0.11971009,9.95987892,0.00213053,0.02982740,-0.01171791
1691757640697467,-0.26815060,0.22505496,10.08437729,0.00958738,0.03408846,0.00639159
1691757640699463,-0.23463176,0.17238252,10.01733971,-0.00426106,0.03302320,0.00532632
1691757640701494,-0.08619126,0.06224924,10.00297451,-0.00852212,0.02876214,-0.00319579
1691757640703450,-0.24899697,0.16759412,10.17535686,0.01065264,0.01917476,-0.00532632
1691757640705493,-0.07661445,0.22026655,9.91678333,0.02237055,0.03195793,-0.00213053
1691757640707439,-0.19153613,0.28730419,10.03649330,0.02237055,0.04154531,0.00000000
1691757640709479,-0.18674773,0.22026655,9.94551373,0.03728426,0.05326322,0.00852212
1691757640711441,-0.05267244,0.19632454,9.88805294,0.05752428,0.06817693,-0.00106526
1691757640713561,-0.26336220,0.27293900,10.14662647,0.07989483,0.08628642,-0.01384844
1691757640715460,-0.08140286,0.20111294,9.88805294,0.09374327,0.09693906,-0.01704423
1691757640717416,-0.22984336,0.27293900,10.05564690,0.08841695,0.09800433,-0.00852212
1691757640719430,-0.30645782,0.20590134,10.01733971,0.06817693,0.07456851,0.00639159
1691757640721467,-0.00478840,0.17717093,9.90241814,0.06072007,0.05858954,0.02237055
1691757640723513,-0.33518824,0.14365210,10.17056847,0.06072007,0.02450108,0.01810949
1691757640725427,0.06224924,0.13886370,9.87368774,0.03941479,0.00000000,0.00426106
1691757640727408,0.00957681,0.27772740,10.09874249,0.02876214,-0.03195793,0.00213053
1691757640729459,-0.10534488,0.15322891,10.15141487,0.02876214,-0.05539375,0.00532632
1691757640731517,0.17238252,0.08140286,10.06522369,0.02663161,-0.07456851,0.00213053
1691757640733451,-0.37349546,0.13886370,10.35252857,0.02450108,-0.09480853,-0.01704423
1691757640735461,0.09576806,0.08140286,10.09395409,0.02237055,-0.11078750,-0.01384844
1691757640737434,-0.06224924,0.13886370,10.25675964,0.02556635,-0.11717909,-0.01491370
1691757640739436,-0.02394202,0.20111294,10.23760605,0.02237055,-0.11824435,-0.02024002
1691757640741435,0.11013328,0.19632454,10.10353088,0.01810949,-0.11291803,-0.03302320
1691757640743443,-0.32561144,0.22984336,10.32379818,0.01810949,-0.10972223,-0.00958738
1691757640745448,-0.00478840,0.14365210,10.02212811,0.03302320,-0.10333065,-0.00532632
1691757640747483,-0.19153613,0.10534488,10.19929886,0.02556635,-0.08628642,0.00532632
1691757640749469,-0.17717093,0.10055647,10.17056847,0.01704423,-0.08096009,0.01171791
1691757640751442,-0.06224924,0.11971009,10.03170490,0.02024002,-0.09480853,0.00745685
1691757640753448,-0.32561144,0.36391866,10.28549004,0.01491370,-0.09054748,-0.00532632
1691757640755412,-0.05267244,0.27293900,9.99818611,0.00000000,-0.07989483,-0.02130529
1691757640757466,-0.17717093,0.18674773,10.11310768,0.00745685,-0.03834952,-0.00639159
1691757640759437,-0.27293900,0.11971009,10.09874249,0.03195793,-0.01065264,-0.00106526
1691757640761428,-0.16759412,0.16280572,9.92636013,0.04474111,0.00532632,-0.00426106
1691757640763448,-0.41180268,0.29209262,10.17056847,0.05006743,0.02769688,-0.00639159
1691757640765453,-0.19153613,0.19632454,9.89762974,0.07456851,0.02237055,-0.00958738
1691757640767420,-0.11492168,0.29688102,9.98382092,0.07563377,0.00852212,-0.00426106
1691757640769425,-0.26336220,0.19153613,10.07001209,0.05752428,-0.00852212,0.00426106
1691757640771465,-0.10055647,0.14844051,9.89762974,0.04154531,-0.02876214,0.01491370
1691757640773525,-0.31124622,0.23942018,10.12747288,0.04154531,-0.05645901,0.01278317
1691757640775578,0.00478840,0.10055647,9.94551373,0.02663161,-0.07030746,-0.00106526
1691757640777431,0.04788403,0.16280572,9.99818611,0.02024002,-0.10333065,0.00852212
1691757640779460,-0.03351882,0.21068975,10.05564690,0.01704423,-0.11185277,0.00213053
1691757640781533,0.04788403,0.07182605,9.90241814,0.00319579,-0.11185277,0.01278317
1691757640783514,-0.13407530,0.31124622,10.08916569,0.00745685,-0.11824435,-0.00958738
1691757640785435,0.00478840,0.12449849,10.01255131,0.01810949,-0.13209279,0.00639159
1691757640787417,-0.06224924,0.14844051,10.07480049,0.01171791,-0.12570120,-0.00852212
1691757640789485,-0.11492168,0.23463176,10.13226128,0.00106526,-0.12037488,0.00106526
1691757640791462,-0.03351882,0.00957681,10.03649330,0.01065264,-0.12570120,-0.01278317
1691757640793434,-0.19153613,0.44532153,10.19451046,0.01384844,-0.12889700,-0.00745685
1691757640795431,-0.06703765,0.11013328,10.12268448,0.00319579,-0.14274544,-0.00852212
1691757640797407,-0.11492168,0.14365210,10.13704967,-0.00106526,-0.13635385,-0.00532632
1691757640799482,-0.10534488,0.37828386,10.17056847,-0.00319579,-0.15126754,-0.01597897
1691757640801430,-0.09097967,0.04309563,10.14183807,-0.00426106,-0.17150757,-0.01917476
1691757640803433,-0.16280572,0.44532153,10.23281765,-0.00426106,-0.17896442,-0.00319579
1691757640805459,-0.11971009,0.03830723,10.13704967,0.00958738,-0.16298546,-0.00532632
1691757640807462,-0.14365210,0.13407530,10.08916569,-0.00106526,-0.15978967,-0.00213053
1691757640809471,-0.10534488,0.42616791,10.06522369,-0.00213053,-0.15872440,0.00213053
1691757640811435,-0.21068975,-0.02873042,10.10831928,0.01704423,-0.14274544,0.00639159
1691757640813491,-0.11971009,0.57460839,10.07958889,0.01810949,-0.11504856,-0.01384844
1691757640815472,-0.15322891,0.20590134,10.04128170,0.02343582,-0.10652644,-0.00745685
1691757640817411,-0.23942018,0.14844051,10.05564690,0.03515373,-0.11078750,-0.00426106
1691757640819432,-0.17717093,0.42137951,9.94072533,0.04474111,-0.11078750,0.00532632
1691757640821466,-0.29688102,-0.01915361,10.02691650,0.04687164,-0.10546118,0.00000000
1691757640823590,-0.17717093,0.44532153,9.94072533,0.05539375,-0.10865697,0.00426106
1691757640825456,-0.14365210,0.20111294,9.90241814,0.05539375,-0.10972223,-0.01597897
1691757640827386,-0.22026655,0.15801731,9.98860931,0.05219796,-0.10333065,-0.00532632
1691757640829440,-0.18195933,0.36391866,9.90241814,0.05752428,-0.09800433,-0.00532632
1691757640831530,-0.13407530,0.17238252,9.82101536,0.05326322,-0.08309063,0.01171791
1691757640833428,-0.21547815,0.35434186,9.82580376,0.04474111,-0.07243798,-0.00532632
1691757640835433,-0.13407530,0.14844051,9.78270817,0.03834952,-0.06285060,0.00745685
1691757640837429,-0.26336220,0.07661445,9.92636013,0.04048005,-0.06178534,0.00958738
1691757640839480,-0.19632454,0.34955344,9.84495735,0.04580637,-0.06817693,0.01917476
1691757640841429,-0.21547815,0.11013328,9.87368774,0.02876214,-0.07776430,0.01278317
1691757640843440,-0.17238252,0.33039984,9.87368774,0.03195793,-0.08522116,0.00000000
1691757640845427,-0.02873042,0.26336220,9.71567059,0.01704423,-0.09267800,-0.00319579
1691757640847469,-0.26815060,0.08140286,9.96466732,0.01278317,-0.09800433,-0.01065264
1691757640849428,-0.15801731,0.33518824,9.90241814,0.01171791,-0.10013486,-0.01065264
1691757640851442,-0.12928689,0.10534488,9.83059216,0.01597897,-0.10226539,-0.00319579
1691757640853427,-0.24420857,0.16280572,9.94551373,0.01917476,-0.10120012,0.00000000
1691757640855537,-0.02394202,0.27293900,9.73961258,0.04154531,-0.09480853,0.00000000
1691757640857454,-0.20111294,0.22505496,10.01733971,0.03941479,-0.09374327,-0.00426106
1691757640859428,-0.22026655,0.27293900,9.97424412,0.03728426,-0.09267800,0.00745685
1691757640861434,-0.19153613,0.09576806,9.92157173,0.05432849,-0.09800433,0.01704423
1691757640863424,-0.22026655,0.24420857,10.07001209,0.06178534,-0.09587380,0.01597897
1691757640865512,0.00478840,0.12449849,9.93114853,0.05326322,-0.10013486,-0.00852212
1691757640867417,-0.15801731,0.15801731,10.03649330,0.05752428,-0.09906960,-0.01384844
1691757640869568,-0.01436521,0.33039984,9.93593693,0.06391586,-0.07669904,-0.01704423
1691757640871457,-0.11971009,0.22984336,9.94072533,0.06817693,-0.02769688,-0.01384844
1691757640873509,-0.27293900,0.11013328,10.03649330,0.06604639,0.00532632,-0.00639159
1691757640875456,-0.17238252,0.23463176,9.86411095,0.07350325,0.03621899,-0.00852212
1691757640877421,-0.32561144,0.13407530,9.90720654,0.04580637,0.06817693,-0.01491370
1691757640879432,-0.39264908,0.33997664,9.94551373,0.04474111,0.06817693,-0.00532632
1691757640881464,-0.14844051,0.10534488,9.66778660,0.02982740,0.06072007,-0.00106526
1691757640883503,-0.23942018,0.11971009,9.79707336,0.02130529,0.05219796,0.01278317
1691757640885507,-0.08619126,0.11492168,9.74440098,0.00532632,0.04261058,0.00319579
1691757640887412,-0.10055647,0.06703765,9.61990261,0.00958738,0.01597897,0.01917476
1691757640889471,-0.21547815,0.24420857,9.73961258,0.02130529,0.01278317,-0.00106526
1691757640891525,-0.05267244,0.10055647,9.63426781,0.01597897,0.00213053,0.00426106
1691757640893439,-0.08619126,0.14844051,9.70130539,0.00532632,-0.00958738,-0.00426106
1691757640895433,-0.07661445,0.22026655,9.68694019,0.00319579,0.00852212,0.00000000
1691757640897435,-0.09097967,0.01915361,9.57680702,0.03408846,0.03515373,0.00213053
1691757640899557,-0.15801731,0.34476504,9.61990261,0.04580637,0.07243798,-0.00745685
1691757640901438,-0.14844051,0.26815060,9.51934624,0.07137272,0.10652644,-0.00745685
1691757640903474,-0.29209262,0.32082301,9.53849983,0.08096009,0.13209279,-0.02769688
1691757640905439,-0.21068975,0.41180268,9.54328823,0.10013486,0.13422331,-0.00958738
1691757640907438,-0.22505496,0.14365210,9.56244183,0.10226539,0.13635385,-0.02237055
1691757640909453,-0.33518824,0.29209262,9.68215179,0.10439591,0.10652644,0.00958738
1691757640911443,-0.18674773,0.11971009,9.60553741,0.08415589,0.09267800,0.00106526
1691757640913447,-0.20590134,0.23463176,9.63426781,0.07243798,0.06924219,0.02237055
1691757640915472,-0.07661445,0.24420857,9.61990261,0.05645901,0.05326322,0.00319579
1691757640917453,-0.15322891,0.14844051,9.75397778,0.05752428,0.01704423,0.01704423
1691757640919447,-0.12449849,0.15801731,9.72524738,0.06924219,0.00639159,0.00319579
1691757640921482,0.08619126,0.19632454,9.59596062,0.07882957,0.00106526,0.01384844
1691757640923510,-0.13407530,0.14365210,9.75397778,0.05326322,-0.00426106,-0.00213053
1691757640925487,-0.02394202,0.32082301,9.67736340,0.04687164,-0.00319579,0.00000000
1691757640927447,0.05267244,0.10055647,9.67736340,0.05752428,-0.01065264,-0.00852212
1691757640929443,-0.19153613,0.07661445,9.83059216,0.04367584,0.00213053,-0.01065264
1691757640931467,0.09576806,0.25857377,9.68215179,0.03302320,-0.00106526,-0.01917476
1691757640933522,-0.22505496,0.04788403,9.84974575,0.02556635,0.00106526,-0.00852212
1691757640935480,-0.14844051,0.23942018,9.74918938,0.03089267,0.00213053,-0.00319579
1691757640937432,-0.22505496,0.01915361,9.97424412,0.00958738,-0.00745685,0.00532632
1691757640939487,-0.34955344,-0.00957681,10.00776291,-0.00106526,-0.00532632,0.00532632
1691757640941485,0.07661445,0.20111294,9.75397778,-0.00745685,-0.01278317,0.00745685
1691757640943377,-0.19153613,-0.03830723,9.92636013,-0.01171791,-0.01491370,-0.00213053
1691757640945438,0.08140286,0.30645782,9.74918938,-0.01171791,-0.00745685,0.00745685
1691757640947412,0.07661445,0.14844051,9.79707336,-0.00532632,-0.00319579,0.00319579
1691757640949585,-0.12449849,0.20111294,9.90720654,-0.01278317,-0.00426106,-0.00852212
1691757640951503,0.00957681,0.27772740,9.71088219,-0.00852212,-0.00426106,-0.01278317
1691757640953442,-0.24420857,0.05267244,9.93593693,-0.00319579,-0.00532632,-0.00958738
1691757640955469,-0.18674773,0.17717093,9.97903252,-0.00745685,-0.00639159,-0.01065264
1691757640957494,0.01915361,0.17717093,9.82580376,-0.01810949,-0.00852212,-0.01278317
1691757640959447,-0.30645782,0.13886370,10.06043530,-0.00532632,-0.01384844,-0.01917476
1691757640961430,-0.02873042,0.35913026,9.86889935,0.00426106,-0.02024002,-0.01704423
1691757640963481,-0.25378537,0.17717093,10.09874249,0.00532632,-0.02450108,-0.01065264
1691757640965532,-0.16759412,0.25857377,10.02691650,0.01278317,-0.03621899,0.00106526
1691757640967440,-0.00957681,0.22026655,9.94551373,0.01704423,-0.04261058,-0.00213053
1691757640969434,-0.10534488,0.23463176,10.15620327,0.01065264,-0.05432849,0.00319579
1691757640971471,0.02394202,0.12449849,10.01733971,0.00852212,-0.06498113,0.00745685
1691757640973491,-0.19632454,0.12928689,10.23281765,0.00532632,-0.07776430,0.00958738
1691757640975629,0.09576806,0.31603462,10.13226128,-0.01065264,-0.07882957,-0.00958738
1691757640977422,-0.08140286,0.02873042,10.24718285,-0.01278317,-0.07882957,-0.00639159
1691757640979506,-0.09576806,0.22026655,10.25675964,-0.01065264,-0.08202536,-0.01278317
1691757640981493,-0.06703765,0.07182605,10.11310768,-0.02450108,-0.07243798,0.00000000
1691757640983436,-0.22984336,0.14365210,10.26154804,-0.03195793,-0.06498113,-0.00426106
1691757640985500,-0.01436521,0.22026655,10.17535686,-0.03728426,-0.06924219,0.00639159
1691757640987355,-0.19632454,-0.07182605,10.23760605,-0.05539375,-0.06817693,-0.00106526
1691757640989491,-0.12449849,0.29688102,10.26633644,-0.06072007,-0.05326322,0.01171791
1691757640991504,-0.11971009,0.03830723,10.18493366,-0.05006743,-0.04793690,0.02237055
1691757640993494,-0.16759412,0.25857377,10.21845245,-0.04580637,-0.03941479,0.02769688
1691757640995451,-0.07661445,0.31124622,10.19929886,-0.04580637,-0.03728426,0.02556635
1691757640997440,-0.25857377,-0.06703765,10.24718285,-0.04261058,-0.04580637,0.02556635
1691757640999486,-0.11492168,0.45489833,10.21845245,-0.03621899,-0.04154531,0.01810949
1691757641001477,-0.19632454,-0.06224924,10.22802925,-0.03834952,-0.04367584,0.00213053
1691757641003437,-0.06703765,0.28251579,10.19929886,-0.03302320,-0.05113269,0.00532632
1691757641005431,0.03351882,0.29209262,10.16099167,-0.03621899,-0.04474111,0.00426106
1691757641007461,-0.20590134,-0.14844051,10.16578007,-0.02982740,-0.02982740,-0.00213053
1691757641009655,0.00000000,0.53151280,10.06522369,-0.02343582,-0.02343582,0.00000000
1691757641011463,-0.29209262,-0.07661445,10.16578007,-0.01597897,-0.00213053,0.01384844
1691757641013468,-0.10534488,0.25857377,10.06043530,-0.00426106,0.00213053,0.00319579
1691757641015471,-0.03351882,0.27293900,10.07480049,0.00106526,0.00000000,0.01065264
1691757641017459,-0.31124622,-0.17717093,10.17056847,-0.00639159,0.00319579,0.01171791
1691757641019436,0.02394202,0.50278234,9.97424412,-0.01491370,0.00106526,0.01384844
1691757641021437,-0.29209262,-0.04788403,10.14183807,-0.00852212,-0.00958738,0.00745685
1691757641023459,-0.09097967,0.21547815,10.03170490,-0.01597897,-0.00852212,0.01704423
1691757641025540,-0.05746084,0.24420857,10.09395409,-0.02769688,-0.00639159,0.00745685
1691757641027461,-0.33039984,-0.27293900,10.21845245,-0.03728426,-0.00745685,0.00639159
1691757641029511,0.02873042,0.43574470,9.95987892,-0.03515373,-0.00639159,-0.00532632
1691757641031481,-0.24420857,-0.03830723,10.18493366,-0.04793690,-0.00106526,-0.00213053
1691757641033487,0.00478840,0.24420857,10.06522369,-0.05539375,-0.00426106,0.00106526
1691757641035508,0.00478840,0.26336220,10.01733971,-0.05219796,-0.00213053,0.00745685
1691757641037428,-0.33518824,-0.11492168,10.14183807,-0.03941479,-0.00639159,-0.00745685
1691757641039469,-0.03351882,0.22026655,10.00776291,-0.02876214,-0.01065264,-0.01278317
1691757641041512,0.03830723,0.30166942,10.04128170,-0.02450108,-0.02343582,-0.00532632
1691757641043454,-0.30166942,-0.04309563,10.18972206,-0.03195793,-0.02450108,-0.01065264
1691757641045552,0.04788403,0.47405192,9.89284134,-0.02982740,-0.01810949,-0.00958738
1691757641047426,-0.27772740,0.02873042,10.10353088,-0.03515373,-0.01384844,0.00319579
1691757641049457,-0.08619126,0.15801731,9.99818611,-0.03515373,-0.00958738,0.00852212
1691757641051504,-0.00478840,0.22026655,9.95509052,-0.04261058,0.00319579,0.00426106
1691757641053466,-0.25857377,0.02394202,10.09874249,-0.04900216,0.01810949,-0.00532632
1691757641055440,0.03830723,0.49799395,9.84495735,-0.04900216,0.02237055,-0.00639159
1691757641057440,-0.24420857,0.02394202,9.99339771,-0.05113269,0.02769688,0.00106526
1691757641059442,-0.20590134,0.19153613,9.90720654,-0.04900216,0.03834952,0.00745685
1691757641061442,-0.21068975,0.07661445,9.91678333,-0.02556635,0.06285060,0.01810949
1691757641063439,-0.38786069,0.01436521,9.96466732,-0.01597897,0.08415589,0.02556635
1691757641065434,-0.12928689,0.45489833,9.72045898,-0.00106526,0.11291803,0.03302320
1691757641067456,-0.26336220,0.10534488,9.73961258,0.00745685,0.15872440,0.03089267
1691757641069474,-0.19632454,0.36870706,9.74918938,0.02024002,0.18429075,0.02343582
1691757641071462,-0.16280572,0.27293900,9.66299820,0.02556635,0.18855180,0.01171791
1691757641073457,-0.35434186,0.13407530,9.75397778,0.01384844,0.18855180,0.00213053
1691757641075500,-0.22984336,0.35434186,9.61990261,0.01171791,0.17470337,-0.00532632
1691757641077424,-0.32561144,-0.02873042,9.57680702,0.01491370,0.15126754,-0.01065264
1691757641079463,-0.10534488,0.16759412,9.56723022,0.01171791,0.13102752,0.00745685
1691757641081536,-0.06703765,0.03830723,9.62947941,0.00639159,0.10652644,-0.00639159
1691757641083529,0.04788403,0.29209262,9.51455784,0.02237055,0.07989483,0.00213053
1691757641085463,0.07661445,0.43095630,9.54328823,0.01065264,0.08309063,-0.01491370
1691757641087445,-0.15801731,-0.15801731,9.56244183,-0.00745685,0.07563377,0.00000000
1691757641089467,0.11013328,0.37828386,9.47146225,-0.00958738,0.07882957,-0.01384844
1691757641091492,-0.05267244,0.23942018,9.54807663,-0.01171791,0.12037488,0.02237055
1691757641093472,-0.26336220,-0.01436521,9.52413464,-0.00532632,0.14913702,-0.00852212
1691757641095453,-0.06224924,0.37349546,9.39484787,0.01384844,0.16192019,0.00745685
1691757641097415,-0.43095630,-0.07182605,9.58159542,0.02876214,0.19068234,0.00639159
1691757641099429,-0.19153613,0.27293900,9.38048267,0.01917476,0.18535601,0.00532632
1691757641101500,-0.37828386,0.04788403,9.55286503,0.02982740,0.16937704,0.00426106
1691757641103475,-0.34955344,-0.04788403,9.52413464,0.03089267,0.16511598,0.01278317
1691757641105437,0.08619126,0.44532153,9.28950214,0.03302320,0.15446334,0.01171791
1691757641107450,-0.23463176,0.16280572,9.59117222,0.02130529,0.13102752,-0.00426106
1691757641109541,-0.16280572,0.27293900,9.39963627,0.01491370,0.13635385,0.00106526
1691757641111539,0.13407530,0.41180268,9.28950214,0.00000000,0.14274544,0.00745685
1691757641113445,-0.17238252,0.20111294,9.44752026,0.01597897,0.16085494,-0.00639159
1691757641115458,0.05267244,0.27772740,9.25598335,0.02024002,0.18002969,0.00000000
1691757641117450,-0.16280572,0.07661445,9.42836666,0.03089267,0.17789917,0.00319579
1691757641119453,-0.29688102,0.11492168,9.43315506,0.03834952,0.15339808,0.00106526
1691757641121548,0.13886370,0.35913026,9.27992535,0.02450108,0.13635385,-0.00213053
1691757641123470,-0.30645782,-0.06703765,9.48582745,-0.00532632,0.10546118,0.00852212
1691757641125493,0.14844051,0.24899697,9.33259869,-0.02130529,0.09161274,0.01491370
1691757641127454,0.14365210,0.18195933,9.45709705,-0.02130529,0.06391586,0.01810949
1691757641129500,-0.12928689,-0.02394202,9.50976944,-0.02769688,0.04474111,0.02343582
1691757641131463,0.22026655,0.17717093,9.35654068,-0.03195793,0.02982740,-0.00106526
1691757641133558,-0.22505496,-0.09576806,9.63426781,-0.03834952,0.02663161,0.01384844
1691757641135493,-0.08140286,0.08619126,9.42357826,-0.05113269,0.03941479,0.00213053
1691757641137427,0.00478840,0.16759412,9.39005947,-0.05539375,0.06391586,0.00106526
1691757641139466,-0.13407530,0.04788403,9.49061584,-0.04154531,0.10972223,-0.01597897
1691757641141445,-0.17238252,0.25857377,9.35654068,-0.02024002,0.16298546,0.00000000
1691757641143444,-0.16759412,0.12449849,9.51455784,-0.01065264,0.18322548,-0.00319579
1691757641145454,-0.11492168,0.26815060,9.37090588,0.01597897,0.17789917,-0.00958738
1691757641147417,-0.12928689,0.35913026,9.41878986,0.02130529,0.17470337,-0.00745685
1691757641149467,-0.27772740,0.15322891,9.48582745,0.00958738,0.15446334,-0.00106526
1691757641151463,-0.00478840,0.30166942,9.41878986,0.00426106,0.12889700,-0.00106526
1691757641153465,-0.14844051,0.08619126,9.51455784,0.02982740,0.08096009,0.00639159
1691757641155440,0.02394202,0.08619126,9.42357826,0.01278317,0.05326322,0.02876214
1691757641157527,-0.02394202,0.22984336,9.58159542,-0.02769688,0.00532632,0.01065264
1691757641159490,0.08140286,0.04309563,9.57201862,-0.03302320,-0.03302320,0.02130529
1691757641161475,0.33518824,0.30166942,9.50019264,-0.02556635,-0.07030746,0.02556635
1691757641163437,0.01436521,0.19632454,9.73482418,-0.04580637,-0.10439591,0.01810949
1691757641165446,0.27293900,0.24899697,9.69651699,-0.07137272,-0.13209279,0.02556635
1691757641167486,0.05267244,0.11492168,9.79707336,-0.05965481,-0.13741912,0.02982740
1691757641169466,0.08140286,-0.00478840,9.73482418,-0.05539375,-0.13315806,0.01384844
1691757641171459,0.14365210,0.18674773,9.74440098,-0.05432849,-0.14913702,0.02663161
1691757641173443,-0.17238252,0.13886370,9.96945572,-0.05965481,-0.12037488,0.04474111
1691757641175526,-0.01436521,0.10534488,9.84495735,-0.03302320,-0.11398330,-0.01065264
1691757641177507,0.01436521,0.20590134,10.00297451,-0.04687164,-0.10865697,-0.00532632
1691757641179433,-0.03351882,0.18195933,9.99339771,-0.06178534,-0.10439591,0.00532632
1691757641181442,-0.04309563,0.14844051,10.13704967,-0.05965481,-0.08202536,0.00106526
1691757641183404,-0.34955344,0.03830723,10.17535686,-0.05539375,-0.08309063,0.00745685
1691757641185509,-0.05746084,0.27293900,10.07480049,-0.07350325,-0.08096009,0.01384844
1691757641187463,-0.12449849,0.06703765,10.25675964,-0.07350325,-0.07882957,0.01704423
1691757641189455,-0.09097967,0.08140286,10.17535686,-0.04474111,-0.05645901,0.01278317
1691757641191445,0.00478840,0.34476504,10.03170490,-0.03195793,-0.01065264,0.02876214
1691757641193556,-0.23942018,0.29209262,10.23760605,-0.01917476,0.02769688,0.01171791
1691757641195558,-0.15801731,0.27772740,9.96945572,-0.00852212,0.04261058,0.00532632
1691757641197413,-0.24899697,0.14844051,10.13226128,0.00532632,0.06817693,0.00319579
1691757641199442,-0.12928689,0.33518824,9.90241814,0.00958738,0.07989483,0.00213053
1691757641201700,-0.06703765,0.22505496,9.84495735,0.01597897,0.07456851,-0.00213053
1691757641203494,-0.32561144,0.04309563,10.03170490,0.01704423,0.06498113,-0.01065264
1691757641205530,-0.07182605,0.21068975,9.87847614,0.01278317,0.07989483,-0.01384844
1691757641207445,-0.28730419,0.06703765,10.06522369,0.01597897,0.08948221,-0.01278317
1691757641209554,-0.14365210,0.10534488,10.04607010,0.01810949,0.07882957,-0.00106526
1691757641211490,-0.06224924,0.24899697,9.91678333,-0.01065264,0.04580637,0.00426106
1691757641213475,-0.22505496,0.08140286,10.01255131,-0.01597897,0.03302320,0.00958738
1691757641215461,-0.02394202,0.00478840,9.91199493,0.00958738,0.00852212,0.01065264
1691757641217419,-0.10534488,0.15322891,9.94072533,0.01917476,-0.02024002,0.02769688
1691757641219517,0.04309563,0.11971009,9.92157173,-0.00639159,-0.04261058,0.00958738
1691757641221444,0.17717093,0.22505496,9.87847614,0.00106526,-0.04474111,0.01278317
1691757641223388,0.06703765,0.20590134,9.93114853,0.00745685,-0.02343582,0.00532632
1691757641225446,0.02873042,0.22505496,9.76834297,0.00106526,0.00319579,0.02663161
1691757641227457,-0.09576806,0.31124622,9.81143856,0.00213053,0.03302320,0.01065264
1691757641229487,-0.18195933,0.18195933,9.69651699,0.02876214,0.04900216,0.00000000
1691757641231447,-0.16759412,0.16759412,9.72524738,0.02876214,0.06711166,-0.01704423
1691757641233477,-0.22505496,0.17238252,9.74918938,0.03195793,0.06817693,-0.01278317
1691757641235510,-0.07182605,0.10534488,9.68694019,0.02130529,0.04580637,-0.01171791
1691757641237455,-0.27772740,0.18195933,9.81622696,0.01278317,0.03302320,0.00213053
1691757641239471,0.02394202,0.22505496,9.63905621,0.01278317,0.01384844,-0.00532632
1691757641241516,0.06703765,0.24420857,9.82580376,0.01065264,0.00000000,-0.01065264
1691757641243522,-0.04309563,0.21068975,9.81622696,-0.00426106,-0.03941479,-0.00852212
1691757641245458,0.15801731,0.08619126,9.70609379,-0.01597897,-0.04154531,-0.01278317
1691757641247449,-0.30166942,0.08140286,9.93593693,-0.01917476,-0.06817693,-0.02024002
1691757641249469,0.15322891,0.03351882,9.70609379,-0.04048005,-0.07030746,-0.02343582
1691757641251496,-0.02394202,-0.02394202,9.82580376,-0.04580637,-0.08841695,-0.03408846
1691757641253468,-0.00478840,0.07661445,9.83538055,-0.04580637,-0.08415589,-0.02769688
1691757641255525,0.21547815,0.05267244,9.68694019,-0.03621899,-0.10120012,-0.01917476
1691757641257428,0.01436521,0.33518824,9.93114853,-0.04048005,-0.09480853,-0.01065264
1691757641259606,0.13407530,0.16759412,9.78270817,-0.03941479,-0.09054748,-0.00745685
1691757641261485,-0.02394202,0.16759412,9.92157173,-0.05326322,-0.07669904,-0.01491370
1691757641263443,-0.09097967,0.26336220,9.87368774,-0.05432849,-0.08202536,-0.01491370
1691757641265442,-0.11013328,-0.03351882,9.80186176,-0.05539375,-0.08948221,-0.01704423
1691757641267425,-0.10055647,0.26336220,9.96466732,-0.04900216,-0.08841695,-0.01171791
1691757641269472,-0.17238252,-0.11013328,9.91199493,-0.03834952,-0.08948221,-0.01491370
1691757641271484,0.00000000,0.18674773,9.84974575,-0.03302320,-0.11185277,-0.01065264
1691757641273447,0.08140286,0.36870706,9.96466732,-0.02556635,-0.12996227,-0.01917476
1691757641275468,-0.03351882,-0.03351882,9.98860931,-0.00426106,-0.12889700,-0.01704423
1691757641277372,0.17717093,0.53151280,9.90720654,0.00319579,-0.13635385,-0.01491370
1691757641279443,-0.12928689,0.08140286,9.99818611,-0.00106526,-0.15659387,-0.00319579
1691757641281464,-0.00957681,0.15801731,9.93114853,-0.02450108,-0.14913702,-0.01065264
1691757641283466,0.08619126,0.24899697,9.94072533,-0.02450108,-0.13528858,-0.00639159
1691757641285541,-0.18195933,-0.25857377,9.96945572,-0.02663161,-0.10652644,0.00958738
1691757641287459,0.03351882,0.46447513,9.76834297,0.01384844,-0.07882957,0.00852212
1691757641289471,-0.22505496,0.07182605,9.85932255,0.02024002,-0.05539375,0.00319579
1691757641291474,-0.02394202,0.26336220,9.78749657,0.01917476,-0.03834952,0.00745685
1691757641293502,0.07661445,0.31124622,9.79228497,0.00639159,-0.03834952,-0.00106526
1691757641295476,-0.26336220,-0.03830723,9.94072533,-0.01278317,-0.05219796,0.00639159
1691757641297458,-0.04309563,0.42137951,9.71567059,-0.01704423,-0.06498113,0.00319579
1691757641299487,-0.18674773,-0.04788403,9.86411095,-0.02663161,-0.07563377,0.00532632
1691757641301508,-0.10055647,0.03351882,9.85453415,-0.02556635,-0.09906960,-0.01171791
1691757641303513,0.06224924,0.06703765,9.79228497,-0.03834952,-0.10546118,-0.02769688
1691757641305523,-0.14844051,-0.15322891,9.93593693,-0.01597897,-0.12037488,-0.03089267
1691757641307464,0.12928689,0.41659111,9.78749657,-0.01491370,-0.12889700,-0.02130529
1691757641309457,0.05267244,0.02873042,9.83538055,-0.00852212,-0.12037488,-0.01384844
1691757641311482,0.07661445,0.33997664,9.78270817,-0.00852212,-0.08096009,-0.02876214
1691757641313521,0.05267244,0.28251579,9.62947941,-0.01171791,-0.05965481,-0.01384844
1691757641315484,-0.15801731,0.06703765,9.69172859,-0.02130529,-0.03515373,-0.01384844
1691757641317423,-0.15322891,0.35434186,9.63905621,-0.00319579,-0.02237055,-0.00426106
1691757641319501,-0.29209262,-0.15801731,9.61032581,-0.00745685,-0.00532632,-0.01917476
1691757641321499,-0.09097967,0.22505496,9.57201862,-0.00745685,-0.00426106,-0.00639159
1691757641323463,-0.24899697,-0.03351882,9.57680702,-0.01065264,0.00106526,0.00000000
1691757641325498,-0.17238252,0.10055647,9.47146225,0.00745685,0.00852212,0.01171791
1691757641327505,0.02394202,0.52672440,9.52413464,0.02343582,0.01704423,-0.00213053
1691757641329505,-0.24899697,0.11492168,9.64863300,0.05965481,0.01810949,-0.00213053
1691757641331476,-0.56503159,0.30645782,9.44752026,0.06285060,-0.00213053,-0.01171791
1691757641333482,-1.13963997,-0.42137951,9.55286503,0.04687164,-0.03089267,-0.01278317
1691757641335589,-0.63206923,0.10534488,9.29429054,0.03195793,-0.06498113,-0.00532632
1691757641337432,-0.90021986,-0.39264908,9.59117222,0.00745685,-0.09161274,0.02450108
1691757641339535,-0.59376204,-0.03351882,9.50976944,0.01171791,-0.11930962,0.02556635
1691757641341453,-0.32561144,-0.01915361,9.62469101,0.01384844,-0.13741912,0.02130529
1691757641343554,-0.49799395,-0.12928689,9.65342140,0.00213053,-0.14594123,0.03302320
1691757641345518,-0.07182605,0.28251579,9.42836666,-0.00106526,-0.14487596,0.02769688
1691757641347438,-0.23463176,-0.01915361,9.65342140,0.00319579,-0.14807175,0.02237055
1691757641349465,-0.22984336,-0.11013328,9.67736340,-0.00745685,-0.14807175,0.01917476
1691757641351483,-0.00478840,0.26336220,9.61990261,-0.00958738,-0.13848437,0.01065264
1691757641353463,-0.28251579,-0.09576806,9.84016895,-0.00319579,-0.13209279,0.01065264
1691757641355443,0.08140286,0.42137951,9.68694019,-0.02769688,-0.13315806,0.00745685
1691757641357436,-0.01915361,0.15322891,9.87368774,-0.03195793,-0.12996227,-0.00213053
1691757641359447,-0.10534488,0.10055647,9.92636013,-0.01491370,-0.12250541,-0.00745685
1691757641361560,-0.04309563,0.38307226,9.84495735,-0.00745685,-0.12783173,0.00000000
1691757641363450,-0.17717093,-0.08619126,10.02212811,-0.01491370,-0.14807175,-0.01597897
1691757641365474,-0.03351882,0.15322891,9.97424412,-0.01278317,-0.15552860,-0.00852212
1691757641367470,-0.12449849,-0.05746084,9.99818611,-0.01491370,-0.16298546,-0.01278317
1691757641369507,-0.06703765,0.14365210,10.02691650,-0.02343582,-0.15126754,-0.01171791
1691757641371451,-0.01915361,0.32082301,10.00776291,-0.02556635,-0.12996227,0.00106526
1691757641373441,0.00000000,0.08140286,9.95030212,-0.02663161,-0.09800433,-0.00319579
1691757641375522,-0.21547815,0.15322891,9.96945572,-0.02343582,-0.07350325,-0.01065264
1691757641377490,-0.26815060,0.05267244,9.98382092,-0.02876214,-0.05965481,-0.01597897
1691757641379565,-0.09097967,0.22026655,9.90720654,-0.04048005,-0.05965481,-0.00639159
1691757641381473,-0.27293900,0.03830723,10.02212811,-0.02876214,-0.07030746,-0.01171791
1691757641383590,-0.11971009,-0.04309563,9.86411095,-0.03089267,-0.08309063,-0.00319579
1691757641385504,-0.15322891,0.15322891,9.97424412,-0.03408846,-0.09480853,-0.01171791
1691757641387431,-0.31124622,-0.10534488,9.94551373,-0.02663161,-0.10333065,-0.01384844
1691757641389461,0.25378537,0.39264908,9.54328823,-0.02343582,-0.11930962,-0.01065264
1691757641391449,-0.03830723,0.27293900,9.56723022,-0.03089267,-0.14274544,-0.01065264
1691757641393506,0.00957681,0.13886370,9.17458057,-0.01384844,-0.15126754,-0.01810949
1691757641395541,0.17717093,0.39264908,8.81066227,-0.00319579,-0.15872440,0.00000000
1691757641397501,-0.10055647,0.15801731,8.79150867,-0.00426106,-0.16831177,-0.01278317
1691757641399459,0.06224924,0.31603462,8.21689987,-0.01384844,-0.13848437,-0.00426106
1691757641401611,-0.06703765,0.19632454,8.14028549,0.02343582,-0.16724652,-0.01278317
1691757641403523,-0.05267244,0.23942018,7.68059921,0.00639159,-0.12570120,0.00106526
1691757641405458,0.06224924,0.31124622,7.56567717,0.00319579,-0.16085494,-0.00958738
1691757641407429,-0.12449849,0.09097967,7.58483076,0.00319579,-0.15233281,0.00639159
1691757641409502,0.00957681,0.17238252,7.28316164,0.00106526,-0.14913702,-0.00745685
1691757641411527,0.00000000,0.27293900,7.15387487,0.00745685,-0.19707392,-0.02024002
1691757641413470,-0.11013328,0.13407530,7.19218206,-0.00319579,-0.16724652,-0.02130529
1691757641415380,0.06703765,0.13886370,6.94318485,0.01384844,-0.20240024,-0.01704423
1691757641417425,-0.17238252,0.18195933,6.82347488,0.01810949,-0.18855180,-0.00319579
1691757641419517,-0.14844051,0.22026655,6.84741688,0.00745685,-0.17150757,-0.01491370
1691757641421489,-0.13886370,0.16759412,6.74686050,0.03408846,-0.20559603,-0.02130529
1691757641423417,-0.22984336,0.30645782,6.66066933,0.02343582,-0.14913702,-0.00106526
1691757641425463,-0.15322891,0.02394202,6.65109253,0.02769688,-0.14274544,-0.02130529
1691757641427485,-0.28730419,0.18195933,6.61278486,0.03302320,-0.13102752,-0.01810949
1691757641429475,-0.28251579,0.24420857,6.52659369,0.03515373,-0.09374327,-0.02130529
1691757641431446,-0.28251579,0.18195933,6.56968927,0.03728426,-0.08415589,-0.00639159
1691757641433450,-0.26336220,0.11492168,6.52180529,0.03195793,-0.05752428,-0.01278317
1691757641435480,-0.18195933,0.17238252,6.50744009,0.04048005,-0.04793690,-0.00745685
1691757641437475,-0.33518824,0.17238252,6.57926607,0.04793690,-0.04474111,-0.00213053
1691757641439502,-0.32082301,0.17717093,6.51222849,0.04793690,-0.04261058,-0.00745685
1691757641441444,-0.30166942,0.26815060,6.60320807,0.04793690,-0.03515373,-0.00639159
1691757641443490,-0.30645782,0.37828386,6.55532408,0.05645901,-0.01704423,-0.00319579
1691757641445574,-0.32561144,0.29688102,6.41167212,0.07137272,0.00852212,0.00426106
1691757641447489,-0.36870706,0.25378537,6.60799646,0.08841695,0.05645901,-0.00319579
1691757641449445,-0.34476504,0.21068975,6.59841967,0.09161274,0.08628642,0.00852212
1691757641451509,-0.28730419,0.22984336,6.57926607,0.09161274,0.10652644,-0.00319579
1691757641453484,-0.40222588,0.16759412,6.69897652,0.09054748,0.10759171,-0.00319579
1691757641455520,-0.32561144,0.16759412,6.71334171,0.10120012,0.09693906,-0.01704423
1691757641457426,-0.22026655,0.11971009,6.69897652,0.08522116,0.09800433,-0.01065264
1691757641459439,-0.29688102,0.23463176,6.79474449,0.08628642,0.08309063,-0.01278317
1691757641461539,-0.14844051,0.24420857,6.84262848,0.07350325,0.05858954,0.00319579
1691757641463465,-0.15322891,0.41180268,6.78037930,0.07563377,0.04900216,-0.01065264
1691757641465483,-0.11492168,0.22984336,6.98628044,0.07030746,0.02450108,-0.00958738
1691757641467457,0.00957681,0.21547815,7.02937603,0.06285060,0.03195793,-0.00745685
1691757641469502,-0.03351882,0.21547815,7.01022243,0.05539375,0.01278317,-0.00319579
1691757641471492,-0.11971009,0.07661445,7.20175886,0.04474111,0.00639159,-0.00532632
1691757641473513,-0.04309563,0.08140286,7.25443125,0.03941479,0.00745685,-0.00852212
1691757641475457,-0.13886370,0.13886370,7.27358484,0.04793690,0.00745685,-0.00639159
1691757641477476,-0.20111294,0.15801731,7.38371801,0.04154531,0.01278317,-0.01171791
1691757641479496,-0.12449849,0.08619126,7.39808321,0.03834952,0.01597897,-0.00958738
1691757641481450,-0.26336220,0.11013328,7.51300478,0.04154531,0.02343582,-0.02237055
1691757641483454,-0.21068975,0.16759412,7.56088877,0.02876214,0.03515373,-0.01704423
1691757641485465,-0.19632454,0.13886370,7.67102242,0.01597897,0.04048005,-0.00639159
1691757641487492,-0.26336220,0.10534488,7.76679039,0.00958738,0.05113269,0.00639159
1691757641489456,-0.14844051,0.12449849,7.69975281,0.01278317,0.05858954,0.00745685
1691757641491524,-0.23942018,0.15801731,7.95353794,-0.00213053,0.06817693,0.00213053
1691757641493493,-0.24899697,0.11492168,8.03494072,0.00106526,0.06178534,0.00000000
1691757641495546,-0.10534488,0.14844051,7.85298157,0.01810949,0.06285060,-0.00213053
1691757641497454,-0.30166942,0.13886370,8.15943909,0.02982740,0.06924219,-0.01704423
1691757641499472,-0.13407530,0.19153613,8.14507389,0.02769688,0.06604639,-0.02024002
1691757641501486,-0.08619126,0.21068975,8.05888271,0.02982740,0.07243798,-0.01810949
1691757641503518,-0.26815060,0.05267244,8.39885998,0.04367584,0.07137272,-0.01491370
1691757641505490,-0.00957681,0.16759412,8.34139919,0.02130529,0.07563377,-0.01384844
1691757641507435,-0.11971009,0.16759412,8.37970638,0.00213053,0.07882957,-0.00745685
1691757641509484,-0.26336220,0.06703765,8.57124233,0.00532632,0.07776430,-0.00532632
1691757641511487,-0.04788403,0.26815060,8.44195557,0.01384844,0.07669904,0.00000000
1691757641513600,-0.12449849,0.24899697,8.63827991,0.01704423,0.07882957,0.00532632
1691757641515478,-0.09097967,0.16759412,8.72925949,0.00852212,0.08309063,-0.00532632
1691757641517426,0.04309563,0.18674773,8.63827991,0.00958738,0.07456851,-0.00852212
1691757641519512,-0.07661445,0.08619126,8.83939266,0.00426106,0.08309063,-0.00532632
1691757641521499,-0.07661445,0.11492168,8.87769985,-0.00745685,0.08522116,0.00000000
1691757641523462,-0.12449849,0.21068975,8.87769985,-0.02130529,0.07456851,-0.00852212
1691757641525448,-0.10055647,0.15801731,8.91121864,-0.02876214,0.07989483,0.00426106
1691757641527467,-0.06224924,0.11971009,8.95910263,-0.02237055,0.08841695,0.01704423
1691757641529541,-0.01436521,0.10534488,9.01177502,-0.02343582,0.08309063,0.02024002
1691757641531486,0.00478840,0.03830723,8.94952583,-0.01704423,0.09480853,0.02237055
1691757641533460,-0.29688102,0.10055647,9.05008221,-0.00745685,0.11717909,0.02450108
1691757641535515,-0.14365210,0.28251579,8.97825623,0.00852212,0.11398330,0.01704423
1691757641537476,-0.11013328,0.13407530,9.01656342,0.01384844,0.12144014,0.00639159
1691757641539553,-0.32082301,0.16759412,9.15542698,-0.00426106,0.14274544,0.00639159
1691757641541457,0.10055647,0.16759412,8.93516064,-0.01810949,0.12570120,0.00532632
1691757641543510,-0.23942018,-0.01436521,9.19373417,-0.00958738,0.12037488,0.01065264
1691757641545544,-0.31603462,0.20111294,9.18415737,-0.01384844,0.12889700,0.01065264
1691757641547478,0.24899697,0.27772740,9.00698662,-0.02343582,0.12570120,-0.00639159
1691757641549597,-0.25857377,0.15801731,9.35175228,-0.02130529,0.10972223,-0.01491370
1691757641551460,0.04309563,0.26815060,9.10754299,-0.00319579,0.10226539,-0.01491370
1691757641553542,0.23942018,0.15322891,9.15542698,-0.00532632,0.09693906,-0.00106526
1691757641555540,-0.28730419,0.20590134,9.38527107,-0.00213053,0.08948221,-0.00639159
1691757641557482,0.10534488,0.26336220,9.09317780,-0.00852212,0.09906960,-0.00106526
1691757641559455,-0.07182605,0.14844051,9.30865574,-0.01810949,0.10120012,-0.01810949
1691757641561505,-0.12928689,0.19632454,9.33738708,-0.02343582,0.09800433,-0.00426106
1691757641563484,-0.04309563,0.12449849,9.16979218,-0.00852212,0.10439591,-0.00639159
1691757641565472,-0.23463176,0.14365210,9.42357826,-0.00213053,0.12250541,0.00000000
1691757641567431,-0.08140286,0.21068975,9.30386734,0.00319579,0.13102752,0.00319579
1691757641569507,-0.16280572,0.18195933,9.35175228,-0.00319579,0.11717909,0.01491370
1691757641571513,-0.12928689,0.31603462,9.49061584,-0.01065264,0.12570120,0.01597897
1691757641573536,-0.04788403,0.11492168,9.36132908,-0.02130529,0.12676647,0.01384844
1691757641575480,-0.06703765,0.24899697,9.40442467,-0.01065264,0.11717909,0.00426106
1691757641577520,0.01436521,0.26336220,9.41400146,-0.01384844,0.10759171,-0.00426106
1691757641579514,-0.10534488,0.11492168,9.43794346,-0.00852212,0.10759171,-0.01597897
1691757641581483,0.06224924,0.33997664,9.38527107,-0.01810949,0.10972223,-0.02024002
1691757641583625,-0.06224924,0.11971009,9.38527107,-0.01810949,0.11398330,-0.01704423
1691757641585491,-0.12928689,0.21068975,9.39005947,0.00106526,0.11824435,-0.00958738
1691757641587481,0.09097967,0.29688102,9.35654068,0.01278317,0.12037488,-0.00852212
1691757641589582,-0.25857377,0.02873042,9.55286503,0.00532632,0.12144014,-0.00745685
1691757641591462,-0.00478840,0.23463176,9.40921307,-0.02130529,0.11504856,0.00106526
1691757641593486,-0.03351882,0.02873042,9.48582745,-0.03302320,0.10013486,0.01278317
1691757641595533,-0.28251579,0.05267244,9.60074902,-0.02769688,0.09480853,0.01171791
1691757641597463,0.27772740,0.31124622,9.40442467,-0.02130529,0.08735169,0.01065264
1691757641599479,-0.03830723,0.06703765,9.66778660,-0.02982740,0.08309063,0.00852212
1691757641601472,0.04309563,0.27293900,9.53371143,-0.03621899,0.07456851,0.00532632
1691757641603497,0.21547815,0.12449849,9.52413464,-0.02556635,0.05432849,0.00532632
1691757641605498,-0.26815060,0.18195933,9.72524738,-0.02343582,0.03941479,0.00319579
1691757641607483,0.22026655,0.31124622,9.58159542,-0.02130529,0.02450108,0.00106526
1691757641609457,-0.00957681,-0.04309563,9.84016895,-0.01171791,-0.00426106,-0.01171791
1691757641611533,0.06224924,0.25378537,9.82580376,-0.00958738,-0.02130529,-0.00639159
1691757641613516,0.17238252,0.13407530,9.85932255,-0.01491370,-0.03408846,-0.00213053
1691757641615536,-0.10055647,0.20590134,10.04607010,-0.02556635,-0.05006743,-0.00745685
1691757641617433,0.23463176,0.31124622,9.86411095,-0.03089267,-0.05006743,-0.00958738
1691757641619479,-0.05267244,-0.11013328,10.00297451,-0.03089267,-0.06391586,-0.00319579
1691757641621515,0.05746084,0.23942018,10.02212811,-0.03941479,-0.06391586,-0.00532632
1691757641623493,0.02873042,-0.03351882,9.98382092,-0.04687164,-0.05645901,-0.00106526
1691757641625491,-0.07661445,0.11492168,10.09874249,-0.05006743,-0.04048005,0.01065264
1691757641627465,0.08140286,0.27772740,10.01255131,-0.05113269,-0.04474111,0.02663161
1691757641629525,-0.09097967,-0.07661445,10.13226128,-0.05965481,-0.03941479,0.02343582
1691757641631517,0.01915361,0.38307226,10.14183807,-0.05539375,-0.02769688,0.02237055
1691757641633491,-0.09097967,0.07661445,10.06043530,-0.05113269,-0.02343582,0.00852212
1691757641635484,-0.06703765,0.22984336,10.08437729,-0.05539375,-0.01171791,0.00106526
1691757641637456,-0.11492168,0.22984336,10.13704967,-0.04367584,-0.02130529,-0.00852212
1691757641639514,-0.22505496,-0.08619126,10.14183807,-0.04154531,-0.01171791,-0.00532632
1691757641641454,0.07661445,0.44532153,10.10831928,-0.04580637,-0.00745685,-0.00958738
1691757641643503,-0.24899697,-0.05746084,10.18014526,-0.05432849,0.00106526,-0.00852212
1691757641645467,0.06224924,0.15322891,10.07958889,-0.04793690,-0.00639159,-0.00852212
1691757641647494,-0.01436521,0.24899697,10.22802925,-0.04154531,0.00106526,-0.01597897
1691757641649458,-0.17238252,0.04788403,10.17056847,-0.03195793,0.00319579,-0.02237055
1691757641651489,0.26336220,0.53151280,10.02691650,-0.02876214,0.01384844,-0.01384844
1691757641653471,-0.33997664,-0.05267244,10.20408726,-0.03302320,0.02343582,-0.00106526
1691757641655633,0.07182605,0.24899697,9.99818611,-0.03408846,0.02663161,0.01065264
1691757641657456,-0.09576806,0.14844051,10.18014526,-0.04261058,0.02343582,0.01597897
1691757641659488,-0.30645782,-0.03351882,10.19451046,-0.04261058,0.01597897,0.01171791
1691757641661487,0.23463176,0.38786069,10.05564690,-0.02663161,0.00745685,0.00958738
1691757641663514,-0.28730419,-0.01915361,10.29985619,-0.01278317,0.00532632,-0.00106526
1691757641665506,0.17238252,0.43095630,10.05564690,-0.01704423,0.00426106,0.00639159
1691757641667443,-0.06224924,0.17238252,10.20408726,-0.02130529,0.00106526,-0.00532632
1691757641669565,-0.30166942,-0.10534488,10.28549004,-0.02769688,0.00319579,-0.00852212
1691757641671534,0.13407530,0.32082301,10.01733971,-0.02130529,-0.00213053,-0.02237055
1691757641673529,-0.27772740,-0.11013328,10.27112484,-0.02343582,-0.01065264,-0.01597897
1691757641675503,0.14844051,0.28730419,10.08437729,-0.03302320,-0.01704423,-0.01491370
1691757641677435,-0.02873042,-0.00478840,10.21845245,-0.04154531,-0.02450108,-0.00319579
1691757641679498,-0.18195933,-0.07182605,10.23281765,-0.04048005,-0.03302320,0.00319579
1691757641681494,0.07661445,0.41180268,10.06043530,-0.02876214,-0.03302320,0.00532632
1691757641683508,-0.06703765,-0.04309563,10.19929886,-0.04048005,-0.03089267,-0.00213053
1691757641685457,0.08140286,0.32561144,10.11310768,-0.04900216,-0.03515373,-0.00532632
1691757641687457,0.00957681,0.33039984,10.11789608,-0.05645901,-0.03195793,0.00106526
1691757641689578,-0.01915361,-0.06224924,10.14183807,-0.05219796,-0.03195793,0.00106526
1691757641691506,-0.08140286,0.25857377,10.10831928,-0.05965481,-0.03408846,0.01171791
1691757641693499,-0.16759412,-0.00478840,10.11789608,-0.05219796,-0.03195793,0.01384844
1691757641695540,-0.02394202,0.20111294,10.01733971,-0.05006743,-0.03302320,0.01065264
1691757641697456,-0.15322891,0.19632454,10.06522369,-0.04793690,-0.03195793,-0.00639159
1691757641699596,-0.03351882,-0.05746084,10.02212811,-0.04793690,-0.03834952,-0.00213053
1691757641701458,-0.19153613,0.18674773,10.10831928,-0.03621899,-0.03941479,-0.00213053
1691757641703495,-0.18195933,-0.00478840,10.13704967,-0.03302320,-0.03728426,-0.00532632
1691757641705535,0.16759412,0.34476504,9.92157173,-0.02663161,-0.04048005,-0.01065264
1691757641707471,-0.15801731,0.23463176,10.11310768,-0.03515373,-0.04261058,-0.00532632
1691757641709569,-0.02394202,0.00478840,9.96945572,-0.05006743,-0.04261058,-0.01384844
1691757641711488,-0.10534488,0.17238252,10.16099167,-0.05006743,-0.03941479,-0.01917476
1691757641713537,-0.32561144,-0.10534488,10.14183807,-0.04900216,-0.04367584,-0.02130529
1691757641715492,0.19153613,0.29688102,9.87847614,-0.05432849,-0.04900216,-0.00958738
1691757641717545,-0.31124622,-0.01915361,10.13704967,-0.05006743,-0.06391586,0.00213053
1691757641719483,0.01436521,0.08619126,9.97903252,-0.04793690,-0.06178534,0.00106526
1691757641721506,0.11492168,0.40222588,9.98860931,-0.04367584,-0.06391586,-0.00426106
1691757641723500,-0.21068975,0.06703765,10.15141487,-0.04474111,-0.07456851,-0.00745685
1691757641725534,0.17238252,0.28251579,9.87368774,-0.04048005,-0.09374327,-0.00639159
1691757641727440,-0.12449849,0.05746084,10.13704967,-0.03302320,-0.10120012,0.00319579
1691757641729480,-0.02394202,0.06224924,9.96945572,-0.02343582,-0.10333065,0.00319579
1691757641731562,0.09576806,0.37349546,9.96945572,-0.01917476,-0.10759171,0.00213053
1691757641733474,-0.11013328,0.11492168,10.13704967,-0.01065264,-0.10546118,-0.00852212
1691757641735450,0.15801731,0.33997664,9.85453415,0.00639159,-0.09906960,-0.00106526
1691757641737447,-0.15322891,0.06224924,10.03649330,-0.00639159,-0.08628642,-0.00213053
1691757641739493,-0.09576806,0.10534488,9.90241814,-0.02450108,-0.08522116,0.00745685
1691757641741532,-0.10534488,0.05746084,9.95509052,-0.04048005,-0.06391586,-0.00106526
1691757641743467,-0.20590134,-0.09097967,9.95509052,-0.04367584,-0.06072007,-0.00532632
1691757641745490,-0.02394202,0.14365210,9.77791977,-0.05326322,-0.06072007,-0.02343582
1691757641747485,-0.19153613,0.02394202,9.87847614,-0.03834952,-0.05006743,-0.02130529
1691757641749593,-0.11971009,0.08140286,9.84495735,-0.00958738,-0.03941479,-0.01917476
