timestamp,accel_x,accel_y,accel_z,gyro_x,gyro_y,gyro_z
1704712213125145,0.00957681,0.02873042,9.95987892,-0.02130529,0.00745685,0.00958738
1704712213126870,0.00478840,0.02394202,9.95987892,-0.01384844,-0.01065264,-0.01171791
1704712213128879,0.00000000,0.02394202,9.95987892,-0.01065264,-0.01171791,-0.01810949
1704712213130898,0.00478840,0.01436521,9.95509052,-0.01810949,-0.01171791,-0.01171791
1704712213132919,0.00478840,0.00957681,9.95030212,-0.02237055,-0.00106526,0.01065264
1704712213134906,0.00478840,0.00957681,9.95030212,-0.02343582,0.00532632,0.01917476
1704712213136904,0.00478840,0.00957681,9.95987892,-0.01917476,0.00106526,0.01065264
1704712213138823,0.00000000,0.00478840,9.96466732,-0.01171791,-0.00532632,-0.00639159
1704712213140859,-0.00478840,0.00000000,9.95987892,-0.00639159,-0.01171791,-0.01917476
1704712213142863,-0.00478840,-0.00957681,9.95030212,-0.00745685,-0.00852212,-0.01065264
1704712213144891,-0.00478840,-0.00957681,9.94551373,-0.01171791,-0.00319579,0.00106526
1704712213146861,-0.00478840,-0.00957681,9.95030212,-0.01384844,0.00106526,0.00958738
1704712213148934,-0.00478840,-0.01436521,9.95509052,-0.01384844,0.00213053,0.01597897
1704712213150879,-0.00957681,-0.01915361,9.95987892,-0.00532632,-0.00426106,-0.00213053
1704712213152892,-0.00957681,-0.02394202,9.95509052,-0.00319579,-0.00639159,-0.01065264
1704712213155010,-0.00478840,-0.02873042,9.94551373,-0.00106526,-0.01065264,-0.01384844
1704712213156871,-0.00957681,-0.02873042,9.94551373,-0.00532632,-0.00745685,0.00319579
1704712213158877,-0.00957681,-0.02873042,9.95509052,-0.00426106,-0.00213053,0.01278317
1704712213160862,-0.00957681,-0.02873042,9.95987892,-0.00639159,0.00000000,0.01384844
1704712213162859,-0.00478840,-0.03351882,9.95987892,-0.00532632,0.00319579,0.00319579
1704712213164929,-0.00957681,-0.03830723,9.95509052,0.00000000,-0.00319579,-0.01065264
1704712213166993,-0.00957681,-0.03830723,9.95030212,0.00319579,-0.01278317,-0.01917476
1704712213168873,-0.01436521,-0.03351882,9.95030212,0.00213053,-0.01171791,-0.00426106
1704712213170817,-0.01436521,-0.02873042,9.95030212,-0.00745685,-0.00639159,0.01491370
1704712213173003,-0.00478840,-0.03351882,9.95030212,-0.00958738,0.00639159,0.01384844
1704712213174897,0.00000000,-0.02873042,9.95030212,-0.01491370,0.00958738,0.00106526
1704712213176870,-0.00478840,-0.02873042,9.95030212,-0.00958738,0.00213053,-0.01171791
1704712213178936,-0.00478840,-0.02394202,9.95030212,-0.00639159,-0.00852212,-0.00532632
1704712213180811,-0.00478840,-0.01915361,9.95030212,-0.00745685,-0.01384844,-0.00532632
1704712213182856,-0.00478840,-0.01436521,9.95030212,-0.01065264,-0.00745685,0.00426106
1704712213184943,0.00478840,-0.00957681,9.95030212,-0.01810949,0.00958738,0.01278317
1704712213186855,0.00478840,-0.00478840,9.95509052,-0.01917476,0.01491370,0.00852212
1704712213188869,0.00478840,0.00000000,9.95509052,-0.01278317,0.00426106,-0.00319579
1704712213190863,0.00000000,0.00478840,9.95030212,-0.00852212,-0.00958738,-0.01065264
1704712213192892,0.00000000,0.00478840,9.94551373,-0.00958738,-0.01491370,-0.00852212
1704712213194860,0.00000000,0.00957681,9.94072533,-0.01384844,-0.00745685,-0.00106526
1704712213196871,0.00478840,0.01436521,9.94072533,-0.01917476,0.00426106,0.00745685
1704712213198848,0.00478840,0.01915361,9.95030212,-0.02024002,0.00639159,0.00745685
1704712213200875,0.00000000,0.01915361,9.95030212,-0.01917476,-0.00106526,0.00106526
1704712213202860,-0.00478840,0.01915361,9.94551373,-0.01810949,-0.01278317,-0.00426106
1704712213204841,-0.00478840,0.01436521,9.93593693,-0.01384844,-0.01917476,-0.00106526
1704712213207040,0.00000000,0.01436521,9.93593693,-0.01384844,-0.01278317,0.00000000
1704712213208901,0.00000000,0.01915361,9.94072533,-0.01597897,-0.00213053,0.00319579
1704712213210840,0.00000000,0.01915361,9.94551373,0.07030746,0.00000000,0.00213053
1704712213212880,-0.00478840,0.02394202,9.95030212,0.16511598,0.00319579,0.00639159
1704712213214823,0.00000000,0.01915361,9.95509052,0.11398330,0.00106526,0.00106526
1704712213216905,0.00000000,0.00478840,9.95509052,-0.04900216,0.00106526,0.00000000
1704712213218897,0.00478840,0.00000000,9.95509052,-0.14381070,0.00319579,0.00213053
1704712213220833,0.00957681,0.01436521,9.97424412,-0.10652644,0.01065264,0.00000000
1704712213222830,0.00957681,0.02394202,9.99339771,-0.09587380,0.00319579,-0.01384844
1704712213224871,-0.00478840,0.01915361,10.00297451,-0.01171791,-0.02450108,-0.02556635
1704712213226868,-0.01915361,0.01436521,10.00776291,0.06285060,-0.04900216,-0.02982740
1704712213228897,-0.02394202,0.02394202,10.01733971,0.01171791,-0.05432849,0.01065264
1704712213230834,-0.03351882,0.01436521,10.03649330,-0.08948221,-0.07350325,0.07776430
1704712213232883,-0.07661445,-0.00478840,10.06522369,-0.11078750,-0.09374327,0.13741912
1704712213234904,-0.12449849,0.00000000,10.07480049,-0.11930962,-0.10652644,0.16192019
1704712213236898,-0.14844051,0.01436521,10.07958889,-0.13422331,-0.13315806,0.15020229
1704712213238855,-0.16759412,0.01436521,10.11310768,-0.05539375,-0.18002969,0.14061491
1704712213240824,-0.18674773,0.03351882,10.13704967,-0.07989483,-0.21198763,0.10439591
1704712213242868,-0.21068975,0.05746084,10.16578007,-0.08948221,-0.23435818,0.07669904
1704712213244887,-0.23463176,0.07182605,10.23281765,-0.09267800,-0.28229508,0.09693906
1704712213246853,-0.24420857,0.09097967,10.28549004,-0.10013486,-0.30040458,0.07137272
1704712213248899,-0.26815060,0.10534488,10.34295177,-0.14381070,-0.31957933,0.04367584
1704712213250853,-0.28730419,0.12449849,10.41477776,-0.14594123,-0.35792884,0.05965481
1704712213252866,-0.29688102,0.12928689,10.43871975,-0.13954964,-0.38882151,0.05219796
1704712213254869,-0.31124622,0.12928689,10.46266174,-0.14913702,-0.43569314,0.03941479
1704712213256865,-0.31603462,0.15801731,10.50096893,-0.15765914,-0.47404268,0.03195793
1704712213258891,-0.32561144,0.14844051,10.51533413,-0.18642128,-0.47617319,0.03089267
1704712213260872,-0.33518824,0.14365210,10.52012253,-0.19494340,-0.46125951,0.01704423
1704712213262879,-0.33039984,0.15801731,10.52491093,-0.16937704,-0.47191215,0.03621899
1704712213264825,-0.33997664,0.14844051,10.52969933,-0.16405073,-0.45593318,0.02343582
1704712213266879,-0.34955344,0.15322891,10.52969933,-0.18109496,-0.42610577,0.00213053
1704712213268879,-0.34476504,0.15801731,10.49618053,-0.16618125,-0.40373522,0.05539375
1704712213270824,-0.33518824,0.15322891,10.45308495,-0.14381070,-0.38775626,0.06498113
1704712213272854,-0.33997664,0.16280572,10.42914295,-0.13209279,-0.37710360,0.06072007
1704712213274894,-0.33039984,0.17238252,10.36689377,-0.11930962,-0.34514567,0.06285060
1704712213276861,-0.32082301,0.16759412,10.26633644,-0.08096009,-0.30679616,0.08735169
1704712213278876,-0.30645782,0.18195933,10.18972206,-0.06178534,-0.29827404,0.08628642
1704712213280965,-0.29688102,0.17717093,10.10831928,-0.03515373,-0.26738137,0.06072007
1704712213282917,-0.29209262,0.17717093,10.04128170,-0.00852212,-0.18748654,0.07669904
1704712213284887,-0.27293900,0.18195933,9.96945572,0.01278317,-0.10759171,0.07882957
1704712213286866,-0.25857377,0.17717093,9.87847614,0.02450108,-0.08841695,0.07030746
1704712213288890,-0.25378537,0.17238252,9.84016895,0.02876214,-0.05858954,0.09054748
1704712213290864,-0.23942018,0.16759412,9.73003578,0.04793690,0.03408846,0.08096009
1704712213292888,-0.23463176,0.16759412,9.67257500,0.06072007,0.09161274,0.07243798
1704712213294882,-0.22505496,0.16280572,9.53371143,0.08202536,0.12889700,0.09693906
1704712213296850,-0.22026655,0.16280572,9.46188545,0.10333065,0.16937704,0.08948221
1704712213298871,-0.21547815,0.15801731,9.41400146,0.11291803,0.23222765,0.09267800
1704712213300868,-0.21068975,0.14844051,9.31823349,0.13422331,0.30040458,0.08628642
1704712213302848,-0.20111294,0.16280572,9.27034855,0.16831177,0.33129725,0.08628642
1704712213304865,-0.18674773,0.14844051,9.21288776,0.17257284,0.37816888,0.09267800
1704712213306921,-0.17717093,0.13407530,9.14106178,0.18002969,0.44741106,0.08096009
1704712213308858,-0.15801731,0.14365210,9.09796619,0.21092236,0.50706589,0.10226539
1704712213310844,-0.14844051,0.13886370,9.07402420,0.23648870,0.51984906,0.10759171
1704712213312890,-0.12928689,0.11971009,9.02135181,0.25246766,0.56032908,0.08415589
1704712213314852,-0.11971009,0.11492168,9.01177502,0.25779399,0.60933125,0.06178534
1704712213316904,-0.08619126,0.10055647,8.99262142,0.27909929,0.63063657,0.06711166
1704712213318878,-0.06224924,0.07182605,8.99740982,0.28229508,0.64341974,0.05432849
1704712213320838,-0.04788403,0.06703765,9.00698662,0.26951191,0.66685551,0.03195793
1704712213322838,-0.01915361,0.06224924,9.03092861,0.26738137,0.68389976,0.03515373
1704712213324859,0.01915361,0.02873042,9.05965900,0.25459820,0.65620291,0.04367584
1704712213326921,0.06703765,0.00000000,9.16500378,0.19707392,0.60826600,0.03728426
1704712213328872,0.14844051,-0.04309563,9.36611748,0.12996227,0.49428269,0.03621899
1704712213330837,0.28730419,-0.10055647,9.61990261,0.09374327,0.30253509,0.04580637
1704712213332914,0.45010993,-0.15801731,9.94551373,0.05645901,0.14807175,0.03302320
1704712213334891,0.58418524,-0.21068975,10.25197124,0.04154531,0.08628642,0.01171791
1704712213336871,0.71347213,-0.26336220,10.46745014,0.04580637,0.03834952,0.00958738
1704712213338870,0.81402856,-0.30645782,10.65898609,0.04474111,0.01065264,0.02663161
1704712213340835,0.87627780,-0.32082301,10.78827286,0.07563377,0.03621899,0.04367584
1704712213342895,0.92416185,-0.33518824,10.80263805,0.10439591,0.12250541,0.00532632
1704712213344875,0.93852705,-0.33997664,10.79784966,0.16618125,0.19068234,0.02450108
1704712213346948,0.93373865,-0.32561144,10.76433086,0.20133498,0.19707392,0.02876214
1704712213348862,0.91937345,-0.32082301,10.66377449,0.21731395,0.20559603,0.02876214
1704712213350858,0.88585460,-0.31603462,10.57279491,0.22264026,0.21411815,0.00426106
1704712213352921,0.84275901,-0.29209262,10.46745014,0.23755397,0.20133498,-0.00852212
1704712213354854,0.81402856,-0.28730419,10.33337498,0.21092236,0.16192019,-0.00426106
1704712213356859,0.79966336,-0.29688102,10.26633644,0.17257284,0.08628642,-0.03089267
1704712213358893,0.76135612,-0.30166942,10.24718285,0.13528858,0.01704423,-0.04154531
1704712213360846,0.70868373,-0.32082301,10.23281765,0.12570120,-0.05219796,-0.03089267
1704712213362875,0.68474168,-0.32082301,10.25675964,0.12144014,-0.09054748,-0.01171791
1704712213365010,0.61291564,-0.32082301,10.32858658,0.08735169,-0.12783173,-0.00852212
1704712213366866,0.51235914,-0.31124622,10.35252857,0.07137272,-0.13848437,-0.00958738
1704712213368909,0.47405192,-0.31124622,10.37168217,0.08415589,-0.15659387,0.00639159
1704712213370873,0.39264908,-0.29688102,10.40998936,0.09267800,-0.20133498,0.00958738
1704712213372874,0.34476504,-0.27772740,10.35252857,0.05432849,-0.24607609,0.01491370
1704712213374938,0.29209262,-0.27772740,10.28070164,0.03089267,-0.25566345,0.01171791
1704712213376891,0.22984336,-0.27293900,10.23281765,0.01704423,-0.26525083,0.03089267
1704712213378868,0.20111294,-0.24420857,10.10831928,-0.00319579,-0.30573088,0.02769688
1704712213380848,0.16759412,-0.25378537,9.99818611,-0.04261058,-0.36538571,0.02876214
1704712213382868,0.11971009,-0.25378537,9.95509052,-0.10333065,-0.36751622,0.02237055
1704712213384888,0.07182605,-0.22984336,9.89284134,-0.14168017,-0.33236250,0.02237055
1704712213386875,0.01915361,-0.22984336,9.88805294,-0.18002969,-0.32916671,0.01917476
1704712213388893,-0.05267244,-0.21547815,9.96945572,-0.22050974,-0.31212249,0.00532632
1704712213390957,-0.12928689,-0.16759412,10.05085850,-0.26098979,-0.28762141,-0.01171791
1704712213392872,-0.19632454,-0.14844051,10.13704967,-0.28016454,-0.27909929,-0.00958738
1704712213394924,-0.25378537,-0.11971009,10.22324085,-0.27803403,-0.28122982,-0.01597897
1704712213396867,-0.31124622,-0.06703765,10.27591324,-0.29294771,-0.28975192,-0.02024002
1704712213398895,-0.34476504,-0.04309563,10.30943298,-0.28762141,-0.33023196,-0.01384844
1704712213400986,-0.36870706,-0.00957681,10.34295177,-0.29507825,-0.33342776,-0.02237055
1704712213402925,-0.40701428,0.03351882,10.35252857,-0.29294771,-0.31531829,-0.02343582
1704712213404883,-0.41659111,0.08619126,10.36689377,-0.25779399,-0.31638354,-0.01491370
1704712213406878,-0.42137951,0.11013328,10.38125896,-0.26631612,-0.30786142,-0.02237055
1704712213408922,-0.45010993,0.13886370,10.39083576,-0.28016454,-0.28229508,-0.02982740
1704712213410903,-0.44532153,0.17717093,10.37647057,-0.26418558,-0.27377295,-0.03089267
1704712213412892,-0.44532153,0.22026655,10.40520096,-0.23542345,-0.29401299,-0.02024002
1704712213414943,-0.45489833,0.23942018,10.39562416,-0.25033715,-0.28336033,-0.02876214
1704712213416933,-0.44053310,0.26815060,10.35252857,-0.25992453,-0.27377295,-0.02237055
1704712213418905,-0.43095630,0.29209262,10.34774017,-0.25459820,-0.27696875,-0.00532632
1704712213420827,-0.43095630,0.30166942,10.31422138,-0.25246766,-0.27590349,-0.00213053
1704712213422925,-0.41659111,0.31603462,10.24718285,-0.25566345,-0.24501082,0.00639159
1704712213424867,-0.40701428,0.33518824,10.23281765,-0.25885925,-0.22370553,0.01704423
1704712213426911,-0.38786069,0.33997664,10.19451046,-0.26205504,-0.19813919,0.01597897
1704712213428909,-0.36391866,0.33997664,10.13226128,-0.26525083,-0.14807175,0.01704423
1704712213430849,-0.33997664,0.34955344,10.11310768,-0.25353295,-0.13954964,0.01278317
1704712213432832,-0.30166942,0.34955344,10.08437729,-0.25246766,-0.13954964,0.03302320
1704712213434920,-0.26336220,0.33997664,10.03170490,-0.26951191,-0.10120012,0.02556635
1704712213436895,-0.22984336,0.33997664,9.99818611,-0.26205504,-0.06072007,0.02769688
1704712213438910,-0.18674773,0.33039984,9.94551373,-0.22370553,-0.05219796,0.03302320
1704712213440839,-0.14365210,0.32082301,9.87847614,-0.21731395,-0.02769688,0.02024002
1704712213442903,-0.10534488,0.32082301,9.84974575,-0.20879182,0.01171791,0.01278317
1704712213444898,-0.07182605,0.30645782,9.80665016,-0.17363811,0.04048005,0.03941479
1704712213446868,-0.03351882,0.28730419,9.73961258,-0.15872440,0.07456851,0.03728426
1704712213448868,0.01436521,0.28730419,9.68215179,-0.13528858,0.15020229,0.03089267
1704712213450845,0.02873042,0.28251579,9.65342140,-0.11398330,0.17363811,0.04048005
1704712213453035,0.05267244,0.25857377,9.60074902,-0.08309063,0.19920444,0.05326322
1704712213454867,0.09576806,0.24420857,9.54807663,-0.05113269,0.24714135,0.03834952
1704712213456879,0.11013328,0.23942018,9.51934624,-0.04154531,0.28655612,0.04900216
1704712213458889,0.12928689,0.21547815,9.46188545,-0.01171791,0.33129725,0.05645901
1704712213460879,0.15322891,0.19632454,9.44273186,0.03408846,0.35153726,0.05965481
1704712213462888,0.17717093,0.18674773,9.40442467,0.06285060,0.38882151,0.05858954
1704712213464868,0.19153613,0.17238252,9.36132908,0.08202536,0.42290998,0.06498113
1704712213466873,0.20590134,0.15322891,9.35654068,0.11930962,0.44847631,0.06285060
1704712213468928,0.22505496,0.13886370,9.32302189,0.15446334,0.49002165,0.04900216
1704712213470871,0.23463176,0.12928689,9.28471375,0.16937704,0.53050166,0.04793690
1704712213472864,0.24899697,0.11013328,9.30386734,0.19281286,0.53156698,0.05219796
1704712213474867,0.25857377,0.09097967,9.29907894,0.22157501,0.53689325,0.04900216
1704712213476901,0.27293900,0.06224924,9.28471375,0.25672874,0.56032908,0.04261058
1704712213478943,0.28251579,0.04788403,9.32781029,0.28442562,0.53689325,0.05006743
1704712213480866,0.32561144,0.01915361,9.41400146,0.28655612,0.45380265,0.04474111
1704712213482844,0.40222588,-0.03351882,9.57680702,0.28975192,0.32703617,0.02769688
1704712213484907,0.47405192,-0.09576806,9.81143856,0.30999196,0.20346551,0.00000000
1704712213486908,0.56024319,-0.15322891,10.01255131,0.29933929,0.10226539,-0.00745685
1704712213488879,0.63685763,-0.22026655,10.21366405,0.26312032,0.03834952,-0.02130529
1704712213490928,0.68474168,-0.29688102,10.41956615,0.26312032,-0.01278317,-0.00426106
1704712213492885,0.74220252,-0.36870706,10.56800652,0.29294771,-0.04793690,0.00532632
1704712213494901,0.74699092,-0.38307226,10.60631371,0.30892667,-0.02024002,0.00745685
1704712213496885,0.74699092,-0.41659111,10.65898609,0.32597092,-0.00532632,0.01597897
1704712213498867,0.73741412,-0.43574470,10.62067890,0.37071201,-0.01278317,0.02130529
1704712213500860,0.72783732,-0.43574470,10.56321812,0.36751622,0.00319579,0.01171791
1704712213502885,0.70389527,-0.43574470,10.50575733,0.38029939,-0.01810949,0.00000000
1704712213504891,0.67037648,-0.43574470,10.37647057,0.39521310,-0.04900216,-0.02556635
1704712213506878,0.64164603,-0.43095630,10.26633644,0.36645097,-0.05539375,-0.03728426
1704712213508883,0.59376204,-0.43574470,10.21366405,0.28975192,-0.05858954,-0.03089267
1704712213510855,0.53630120,-0.45010993,10.17535686,0.20240024,-0.06178534,-0.04687164
1704712213512877,0.46926352,-0.45489833,10.21366405,0.17257284,-0.08309063,-0.03195793
1704712213514896,0.37828386,-0.48362875,10.30464458,0.12676647,-0.08096009,-0.01704423
1704712213516830,0.29209262,-0.47884035,10.35731697,0.06072007,-0.10333065,-0.01810949
1704712213518883,0.21547815,-0.46926352,10.41477776,0.04687164,-0.14274544,0.00106526
1704712213520866,0.15322891,-0.47405192,10.44829655,0.06498113,-0.16618125,-0.00639159
1704712213522836,0.11013328,-0.45489833,10.39562416,0.07776430,-0.26525083,0.00958738
1704712213524852,0.06703765,-0.43095630,10.34774017,0.06711166,-0.32384038,0.01704423
1704712213526873,0.04309563,-0.40701428,10.29027843,0.06072007,-0.36005938,0.02982740
1704712213528970,0.02394202,-0.38786069,10.17535686,0.05219796,-0.37816888,0.03515373
1704712213530840,-0.01915361,-0.35434186,10.11310768,0.00958738,-0.34194988,0.04793690
1704712213532866,-0.03351882,-0.33518824,10.11310768,-0.02982740,-0.31638354,0.04793690
1704712213534936,-0.09097967,-0.29688102,10.13226128,-0.03728426,-0.21944447,0.04580637
1704712213536873,-0.16759412,-0.25857377,10.20887566,-0.03515373,-0.13635385,0.02237055
1704712213538898,-0.21547815,-0.20111294,10.27112484,-0.07456851,-0.09587380,-0.00213053
1704712213540844,-0.26815060,-0.15322891,10.32379818,-0.12144014,-0.10759171,-0.01384844
1704712213542854,-0.30645782,-0.12449849,10.35731697,-0.15446334,-0.19494340,-0.02237055
1704712213544916,-0.31603462,-0.09576806,10.33337498,-0.19068234,-0.25459820,-0.04261058
1704712213546894,-0.33039984,-0.08140286,10.30464458,-0.22264026,-0.34301513,-0.01704423
1704712213548920,-0.32082301,-0.05267244,10.25675964,-0.29081720,-0.39201730,0.00213053
1704712213550847,-0.31603462,-0.04309563,10.19929886,-0.31212249,-0.38775626,0.00000000
1704712213552907,-0.32082301,-0.02873042,10.19451046,-0.31957933,-0.33555830,-0.02024002
1704712213554863,-0.31603462,0.02394202,10.21366405,-0.31957933,-0.30146983,-0.03515373
1704712213556886,-0.33518824,0.04788403,10.24239445,-0.33662355,-0.26098979,-0.04580637
1704712213558875,-0.35434186,0.08619126,10.29027843,-0.35579833,-0.20346551,-0.07350325
1704712213560869,-0.35434186,0.13407530,10.31422138,-0.37284255,-0.17576863,-0.05858954
1704712213562873,-0.35434186,0.14365210,10.29985619,-0.40266997,-0.21518342,-0.05965481
1704712213564886,-0.33997664,0.15801731,10.25675964,-0.42717105,-0.26418558,-0.04367584
1704712213566836,-0.33518824,0.16759412,10.20887566,-0.45912898,-0.25779399,-0.04367584
1704712213568888,-0.31124622,0.17238252,10.12747288,-0.47084689,-0.25992453,-0.03515373
1704712213570860,-0.28730419,0.18195933,10.05085850,-0.49641323,-0.23009712,-0.03834952
1704712213573018,-0.28730419,0.20111294,10.02691650,-0.49215218,-0.18535601,-0.04474111
1704712213574875,-0.24899697,0.23942018,9.97424412,-0.46445531,-0.11824435,-0.06924219
1704712213576891,-0.24420857,0.25378537,9.97903252,-0.44421527,-0.06924219,-0.06285060
1704712213578901,-0.24899697,0.28730419,9.98860931,-0.41864893,-0.04367584,-0.04793690
1704712213580861,-0.22026655,0.31124622,9.95987892,-0.39308259,-0.02450108,-0.04048005
1704712213582837,-0.20111294,0.32561144,9.93114853,-0.41758364,0.04048005,-0.03834952
1704712213584888,-0.19153613,0.34476504,9.89284134,-0.41012681,0.01491370,-0.02024002
1704712213586904,-0.16759412,0.34955344,9.81143856,-0.38136467,0.01491370,-0.00106526
1704712213588903,-0.14844051,0.34955344,9.74918938,-0.37923414,0.07776430,0.00852212
1704712213590853,-0.13407530,0.36870706,9.68215179,-0.37497309,0.10120012,0.02450108
1704712213592878,-0.11013328,0.36870706,9.60074902,-0.34514567,0.12250541,0.04261058
1704712213594945,-0.08619126,0.37349546,9.56723022,-0.29401299,0.15126754,0.02769688
1704712213596901,-0.05746084,0.39264908,9.54807663,-0.25033715,0.20240024,0.02982740
1704712213598850,-0.02873042,0.39743748,9.52892303,-0.22583605,0.25033715,0.05006743
1704712213600838,-0.00478840,0.39264908,9.53849983,-0.18109496,0.28016454,0.04687164
1704712213602916,0.02873042,0.40701428,9.53849983,-0.11504856,0.32170987,0.05219796
1704712213604835,0.05267244,0.40701428,9.51455784,-0.07776430,0.34301513,0.06178534
1704712213606895,0.06703765,0.39264908,9.50976944,-0.05219796,0.35153726,0.06178534
1704712213608900,0.08140286,0.39264908,9.47625065,-0.00639159,0.36858150,0.06817693
1704712213610849,0.09576806,0.39743748,9.41878986,0.05965481,0.39521310,0.08309063
1704712213612956,0.10534488,0.38307226,9.39005947,0.11504856,0.40906155,0.07669904
1704712213614888,0.11492168,0.36870706,9.35175228,0.16298546,0.42290998,0.07243798
1704712213617089,0.12928689,0.36870706,9.32302189,0.20453078,0.45486790,0.06604639
1704712213618848,0.15322891,0.33039984,9.35654068,0.25140241,0.46125951,0.07137272
1704712213620857,0.16280572,0.31124622,9.37090588,0.27909929,0.47297740,0.06711166
1704712213622991,0.18674773,0.28251579,9.43315506,0.31425300,0.47617319,0.06072007
1704712213624848,0.22984336,0.24420857,9.55765343,0.35473305,0.43995422,0.04900216
1704712213626892,0.27293900,0.19153613,9.68215179,0.38775626,0.40266997,0.05219796
1704712213628907,0.31603462,0.15322891,9.81143856,0.43249735,0.34301513,0.03302320
1704712213630836,0.35913026,0.10534488,9.94072533,0.48256478,0.28762141,0.03302320
1704712213632854,0.40701428,0.05746084,10.05085850,0.49002165,0.24820662,0.02343582
1704712213634888,0.45010993,0.01915361,10.15141487,0.49108690,0.19387813,0.01491370
1704712213636894,0.49320555,-0.02873042,10.23281765,0.51665324,0.11291803,0.00958738
1704712213638893,0.52193600,-0.07182605,10.29985619,0.54115433,0.06924219,0.01384844
1704712213640831,0.55066639,-0.10055647,10.35252857,0.51771849,0.03621899,0.03515373
1704712213642858,0.56981999,-0.14844051,10.38604736,0.49854377,0.00745685,0.04367584
1704712213644882,0.57939678,-0.19632454,10.41956615,0.51132691,-0.02130529,0.03941479
1704712213646931,0.57939678,-0.21547815,10.41956615,0.53582799,-0.03621899,0.03302320
1704712213648850,0.56981999,-0.25378537,10.39562416,0.52091432,-0.05539375,0.02982740
1704712213650838,0.55545479,-0.28251579,10.38604736,0.50067431,-0.09267800,0.02450108
1704712213652904,0.53630120,-0.29688102,10.34774017,0.49534798,-0.10226539,0.01278317
1704712213654867,0.51235914,-0.32561144,10.29506683,0.48789111,-0.10865697,-0.00426106
1704712213656870,0.48362875,-0.35434186,10.28549004,0.45060685,-0.15446334,-0.01384844
1704712213658888,0.44532153,-0.37349546,10.29027843,0.39627838,-0.16937704,-0.02663161
1704712213660985,0.39743748,-0.42616791,10.30943298,0.30679616,-0.14274544,-0.03089267
1704712213662937,0.31124622,-0.47884035,10.37647057,0.26312032,-0.15659387,-0.01491370
1704712213664903,0.28730419,-0.49320555,10.39083576,0.23329291,-0.16937704,-0.02450108
1704712213666875,0.23463176,-0.53151280,10.41477776,0.18855180,-0.19174761,-0.01171791
1704712213668882,0.18674773,-0.55066639,10.42435455,0.17576863,-0.20133498,0.00319579
1704712213670879,0.13886370,-0.55545479,10.40041256,0.19387813,-0.21837921,0.00852212
1704712213672927,0.11492168,-0.56024319,10.35252857,0.21305288,-0.26951191,0.01171791
1704712213674853,0.09576806,-0.54108959,10.29027843,0.19600865,-0.30573088,0.01384844
1704712213676894,0.06224924,-0.53630120,10.22324085,0.17257284,-0.32277513,0.01597897
1704712213678929,0.04788403,-0.52193600,10.16099167,0.14381070,-0.32916671,0.02130529
1704712213680858,0.01436521,-0.49799395,10.13704967,0.10226539,-0.27590349,0.02556635
1704712213682882,-0.04309563,-0.48841715,10.14662647,0.06498113,-0.23968449,0.01171791
1704712213684969,-0.08140286,-0.44532153,10.18014526,0.03302320,-0.18002969,0.01278317
1704712213686899,-0.13407530,-0.41180268,10.23760605,0.00852212,-0.14274544,-0.00426106
1704712213688882,-0.18195933,-0.38786069,10.27591324,-0.01597897,-0.13102752,-0.00106526
1704712213690869,-0.21068975,-0.35913026,10.29506683,-0.06285060,-0.14061491,-0.01810949
1704712213692880,-0.23942018,-0.33997664,10.29985619,-0.11078750,-0.18748654,-0.00852212
1704712213694910,-0.24899697,-0.32082301,10.25197124,-0.14700650,-0.24607609,0.00106526
1704712213696905,-0.24420857,-0.30166942,10.20887566,-0.18748654,-0.29294771,-0.00852212
1704712213698837,-0.24899697,-0.28730419,10.16578007,-0.25140241,-0.29720879,-0.00745685
1704712213700832,-0.23463176,-0.26336220,10.10831928,-0.31744879,-0.29188246,0.00000000
1704712213702867,-0.23463176,-0.24899697,10.10353088,-0.34834146,-0.26418558,0.00852212
1704712213704878,-0.23942018,-0.22026655,10.12268448,-0.36858150,-0.21518342,-0.01171791
1704712213706882,-0.22984336,-0.17717093,10.11789608,-0.42077947,-0.14168017,-0.02663161
1704712213708893,-0.24420857,-0.16280572,10.14662647,-0.43356264,-0.11078750,-0.02237055
1704712213710919,-0.24899697,-0.12449849,10.15141487,-0.46232477,-0.08948221,-0.02237055
1704712213712922,-0.23942018,-0.10534488,10.10831928,-0.48895636,-0.07882957,-0.02663161
1704712213714886,-0.23942018,-0.10055647,10.08916569,-0.53582799,-0.08735169,-0.02556635
1704712213716895,-0.22984336,-0.06703765,10.02691650,-0.55926383,-0.08628642,-0.00852212
1704712213718871,-0.22026655,-0.06703765,9.95030212,-0.57630807,-0.06817693,-0.01491370
1704712213720874,-0.21068975,-0.06703765,9.89762974,-0.59548283,-0.06178534,-0.03089267
1704712213722882,-0.19632454,-0.03830723,9.82101536,-0.61891866,-0.05006743,-0.02876214
1704712213724864,-0.19153613,-0.03830723,9.75397778,-0.61678809,-0.00639159,-0.03302320
1704712213726854,-0.18674773,-0.01436521,9.73003578,-0.59228700,0.05113269,-0.05539375
1704712213728914,-0.16759412,0.02873042,9.71088219,-0.56991649,0.10226539,-0.03621899
1704712213730836,-0.15801731,0.05267244,9.69651699,-0.55500275,0.13209279,-0.03834952
1704712213732895,-0.15801731,0.08140286,9.71567059,-0.52943641,0.18002969,-0.03195793
1704712213734874,-0.14844051,0.11492168,9.70130539,-0.49215218,0.21624868,-0.01917476
1704712213736896,-0.13886370,0.13407530,9.66299820,-0.47723848,0.22157501,0.00745685
1704712213738909,-0.13407530,0.15322891,9.65820980,-0.49215218,0.23329291,0.02343582
1704712213740868,-0.12449849,0.16759412,9.62469101,-0.47936898,0.24501082,0.02024002
1704712213742838,-0.11492168,0.17238252,9.55765343,-0.42717105,0.25246766,0.02769688
1704712213744905,-0.11013328,0.18674773,9.54328823,-0.41012681,0.28229508,0.03834952
1704712213746945,-0.09576806,0.20111294,9.50976944,-0.40906155,0.28229508,0.03302320
1704712213748921,-0.08140286,0.21068975,9.47146225,-0.37710360,0.28549087,0.03515373
1704712213750843,-0.07182605,0.22026655,9.49061584,-0.30892667,0.34194988,0.03941479
1704712213752885,-0.05267244,0.23463176,9.48582745,-0.26631612,0.36325517,0.04154531
1704712213754979,-0.03351882,0.25378537,9.51934624,-0.20346551,0.34834146,0.03941479
1704712213756898,0.00000000,0.27772740,9.63426781,-0.10865697,0.32703617,0.03408846
1704712213758863,0.05267244,0.28730419,9.73482418,-0.03408846,0.30892667,0.02130529
1704712213760866,0.10534488,0.32082301,9.87847614,0.05326322,0.27164242,0.01065264
1704712213762885,0.16280572,0.33518824,10.04128170,0.11824435,0.22690132,0.00639159
1704712213764892,0.21547815,0.33997664,10.14183807,0.14168017,0.21944447,0.01278317
1704712213766888,0.24899697,0.34476504,10.23760605,0.14487596,0.22796659,0.01491370
1704712213768891,0.28730419,0.33997664,10.29985619,0.15126754,0.22583605,0.03089267
1704712213770891,0.31603462,0.33039984,10.31900978,0.14913702,0.24927188,0.04793690
1704712213772946,0.32082301,0.32561144,10.33337498,0.17150757,0.25459820,0.05965481
1704712213774856,0.32561144,0.30166942,10.32858658,0.19174761,0.26951191,0.05113269
1704712213776919,0.33997664,0.28730419,10.29985619,0.20240024,0.26098979,0.05539375
1704712213778890,0.33518824,0.27772740,10.26633644,0.21518342,0.23861924,0.05752428
1704712213780869,0.33518824,0.25378537,10.21845245,0.24820662,0.22690132,0.03834952
1704712213782952,0.33997664,0.23463176,10.16099167,0.29827404,0.19707392,0.02130529
1704712213784877,0.33997664,0.22505496,10.11310768,0.32170987,0.17470337,0.02876214
1704712213786965,0.34476504,0.19632454,10.06522369,0.31851408,0.12250541,0.02024002
1704712213788903,0.35913026,0.16759412,10.04607010,0.33555830,0.05645901,-0.01810949
1704712213790951,0.36870706,0.12928689,10.04607010,0.34621096,0.02130529,-0.01917476
1704712213792867,0.38307226,0.08619126,10.06043530,0.34088463,-0.02556635,-0.02237055
1704712213794893,0.39264908,0.05267244,10.09395409,0.33236250,-0.07563377,-0.01065264
1704712213796904,0.38786069,0.00478840,10.13704967,0.33129725,-0.09800433,-0.02130529
1704712213798952,0.38786069,-0.03830723,10.17535686,0.33342776,-0.12357067,-0.00319579
1704712213800850,0.38307226,-0.06703765,10.20408726,0.33236250,-0.14594123,-0.00319579
1704712213802868,0.36391866,-0.10055647,10.21845245,0.35686359,-0.15765914,0.00106526
1704712213804920,0.34955344,-0.11971009,10.22802925,0.37923414,-0.15765914,0.00319579
1704712213806903,0.33997664,-0.13407530,10.20887566,0.37710360,-0.16618125,0.01171791
1704712213808888,0.31124622,-0.14365210,10.19451046,0.37497309,-0.18429075,0.00426106
1704712213810862,0.30166942,-0.14844051,10.17056847,0.39308259,-0.20240024,0.00426106
1704712213812910,0.28730419,-0.16759412,10.12268448,0.39201730,-0.20133498,0.00426106
1704712213814893,0.25857377,-0.16759412,10.08916569,0.38242993,-0.21731395,0.00745685
1704712213816912,0.24420857,-0.16759412,10.04607010,0.36964676,-0.24074976,0.00639159
1704712213818871,0.22505496,-0.18674773,9.98860931,0.37177730,-0.24927188,0.00319579
1704712213820867,0.20111294,-0.18674773,9.95509052,0.34727621,-0.25246766,0.01384844
1704712213822885,0.19632454,-0.19632454,9.90720654,0.30466563,-0.26098979,0.01917476
1704712213824866,0.16759412,-0.21547815,9.86889935,0.23861924,-0.23435818,0.02343582
1704712213826920,0.12928689,-0.23463176,9.91678333,0.16937704,-0.17683390,0.03728426
1704712213828941,0.08140286,-0.27293900,9.98860931,0.09906960,-0.10013486,0.02982740
1704712213830893,0.01436521,-0.29209262,10.07480049,0.05432849,-0.05645901,0.03408846
1704712213832881,-0.01915361,-0.29209262,10.18972206,0.02237055,-0.04154531,0.03302320
1704712213835000,-0.06703765,-0.30645782,10.27591324,-0.02130529,-0.04048005,0.02769688
1704712213836870,-0.11013328,-0.30645782,10.34295177,-0.03834952,-0.04580637,0.03941479
1704712213838936,-0.12928689,-0.30166942,10.40520096,-0.01597897,-0.10652644,0.02343582
1704712213840876,-0.13886370,-0.30645782,10.40041256,-0.02450108,-0.13528858,0.02450108
1704712213842909,-0.14365210,-0.28730419,10.39562416,-0.07243798,-0.15872440,0.02663161
1704712213844895,-0.14365210,-0.28730419,10.40520096,-0.08841695,-0.17683390,0.02450108
1704712213846921,-0.13886370,-0.28730419,10.38604736,-0.10120012,-0.20133498,0.02556635
1704712213848898,-0.11971009,-0.26815060,10.34774017,-0.14594123,-0.22050974,0.03515373
1704712213850851,-0.11492168,-0.27293900,10.32858658,-0.18855180,-0.23222765,0.01810949
1704712213852879,-0.10534488,-0.26336220,10.28070164,-0.20346551,-0.22477080,0.00213053
1704712213854895,-0.08619126,-0.25857377,10.24239445,-0.23755397,-0.19387813,0.00213053
1704712213856911,-0.08619126,-0.26815060,10.21845245,-0.29507825,-0.19174761,-0.01171791
1704712213858899,-0.07182605,-0.24420857,10.16099167,-0.30466563,-0.19387813,-0.00852212
1704712213860861,-0.06224924,-0.25378537,10.13704967,-0.31212249,-0.18002969,-0.01384844
1704712213862937,-0.06224924,-0.24899697,10.10831928,-0.34621096,-0.14807175,-0.00958738
1704712213864894,-0.04788403,-0.22984336,10.06522369,-0.38988680,-0.13741912,-0.02663161
1704712213866900,-0.04788403,-0.23463176,10.06522369,-0.40053943,-0.13528858,-0.01810949
1704712213868921,-0.05267244,-0.21547815,10.04128170,-0.38349521,-0.09267800,-0.01704423
1704712213870854,-0.04788403,-0.20111294,10.01733971,-0.38562572,-0.06178534,-0.01917476
1704712213872889,-0.05267244,-0.19632454,10.03170490,-0.40373522,-0.04474111,-0.02343582
1704712213874916,-0.04788403,-0.16280572,10.02212811,-0.40373522,-0.02556635,-0.01384844
1704712213876895,-0.05267244,-0.16759412,10.00776291,-0.38669100,0.00958738,-0.01917476
1704712213878893,-0.06703765,-0.14844051,10.01733971,-0.38136467,0.02876214,-0.01704423
1704712213880812,-0.06224924,-0.11971009,9.99339771,-0.40266997,0.02024002,-0.00745685
1704712213882898,-0.06703765,-0.11492168,9.98860931,-0.43249735,0.05006743,-0.01384844
1704712213884921,-0.07182605,-0.10055647,9.98860931,-0.42184472,0.08628642,-0.01597897
1704712213887091,-0.06703765,-0.08619126,9.95987892,-0.39627838,0.10865697,-0.00745685
1704712213888908,-0.07661445,-0.06703765,9.94551373,-0.39947417,0.11824435,0.01065264
1704712213890874,-0.07661445,-0.05267244,9.94551373,-0.40053943,0.13102752,0.02450108
1704712213892899,-0.07182605,-0.05267244,9.91199493,-0.37071201,0.16298546,0.02876214
1704712213894886,-0.08140286,-0.03351882,9.89762974,-0.32703617,0.19600865,0.02982740
1704712213896926,-0.07661445,-0.00957681,9.89284134,-0.30679616,0.20240024,0.03089267
1704712213898898,-0.07182605,-0.00478840,9.85932255,-0.28762141,0.19281286,0.04474111
1704712213900849,-0.08619126,0.01915361,9.86889935,-0.25779399,0.21624868,0.03834952
1704712213902925,-0.07661445,0.03830723,9.86411095,-0.22477080,0.24607609,0.02982740
1704712213904917,-0.06703765,0.05267244,9.84016895,-0.18855180,0.23222765,0.03941479
1704712213906995,-0.06703765,0.08140286,9.85453415,-0.16192019,0.21305288,0.04154531
1704712213908904,-0.05267244,0.09097967,9.84974575,-0.11930962,0.21944447,0.02982740
1704712213910857,-0.04788403,0.11013328,9.84016895,-0.08096009,0.21944447,0.03515373
1704712213912872,-0.04309563,0.12928689,9.85932255,-0.06178534,0.21198763,0.04367584
1704712213914901,-0.01915361,0.13407530,9.84974575,-0.04367584,0.20346551,0.03302320
1704712213916906,-0.01436521,0.14844051,9.85453415,-0.00745685,0.20240024,0.02769688
1704712213918875,-0.00478840,0.15801731,9.87368774,0.02982740,0.20133498,0.02663161
1704712213920865,0.01915361,0.16280572,9.86889935,0.04474111,0.19920444,0.03408846
1704712213922889,0.02873042,0.17717093,9.89762974,0.06498113,0.18855180,0.03195793
1704712213924966,0.04788403,0.17238252,9.90720654,0.10333065,0.18109496,0.01917476
1704712213926870,0.07182605,0.17238252,9.91678333,0.14487596,0.18855180,0.00852212
1704712213928898,0.07182605,0.17238252,9.93114853,0.16937704,0.16511598,0.01597897
1704712213930882,0.10055647,0.16759412,9.93114853,0.16937704,0.13741912,0.00000000
1704712213932877,0.11971009,0.16759412,9.94551373,0.17789917,0.13315806,-0.01491370
1704712213934879,0.12449849,0.15801731,9.97424412,0.20346551,0.12676647,-0.02982740
1704712213936997,0.15322891,0.14844051,9.96466732,0.20133498,0.09480853,-0.02024002
1704712213938897,0.16280572,0.14365210,9.99818611,0.20133498,0.05326322,-0.02237055
1704712213940867,0.17238252,0.12928689,10.02691650,0.23435818,0.04154531,-0.02024002
1704712213943039,0.19153613,0.12449849,10.02691650,0.25672874,0.03728426,-0.02130529
1704712213944952,0.19632454,0.11013328,10.06522369,0.25885925,0.02876214,-0.00745685
1704712213946904,0.21068975,0.10055647,10.06522369,0.26951191,0.00213053,0.00000000
1704712213948914,0.22026655,0.09097967,10.07480049,0.27377295,-0.02024002,0.00319579
1704712213950836,0.21547815,0.06703765,10.11310768,0.26205504,-0.03195793,0.00532632
1704712213952858,0.22505496,0.06224924,10.10353088,0.26738137,-0.04048005,0.01278317
1704712213954889,0.22026655,0.04309563,10.13226128,0.27590349,-0.05965481,0.02876214
1704712213956902,0.22026655,0.01915361,10.15141487,0.27803403,-0.07456851,0.01704423
1704712213958903,0.22505496,0.01436521,10.15141487,0.26312032,-0.08309063,0.01384844
1704712213960828,0.21068975,-0.00957681,10.18972206,0.25353295,-0.10546118,0.01810949
1704712213962855,0.20590134,-0.01915361,10.18972206,0.23861924,-0.11078750,0.01491370
1704712213965044,0.19153613,-0.04788403,10.22324085,0.21305288,-0.11930962,0.01704423
1704712213966905,0.19153613,-0.05267244,10.23760605,0.19387813,-0.13528858,0.01704423
1704712213968977,0.19632454,-0.05267244,10.23760605,0.16724652,-0.15126754,0.02876214
1704712213970875,0.17238252,-0.09097967,10.28549004,0.15339808,-0.16724652,0.02769688
1704712213972901,0.17238252,-0.09097967,10.28549004,0.15020229,-0.17470337,0.02450108
1704712213974927,0.16759412,-0.09576806,10.27591324,0.12144014,-0.18748654,0.01384844
1704712213976877,0.15801731,-0.11971009,10.31422138,0.08948221,-0.18748654,0.01171791
1704712213978898,0.16280572,-0.11492168,10.31900978,0.07882957,-0.19387813,0.01810949
1704712213980908,0.14844051,-0.12928689,10.31900978,0.07350325,-0.20559603,0.01810949
1704712213982936,0.13886370,-0.13407530,10.34774017,0.05858954,-0.21198763,0.01917476
1704712213984879,0.12928689,-0.12449849,10.34295177,0.03195793,-0.20879182,0.02663161
1704712213986897,0.11492168,-0.14365210,10.35252857,0.00426106,-0.20985709,0.02556635
1704712213988891,0.11013328,-0.12928689,10.36689377,-0.01065264,-0.21731395,0.02769688
1704712213990865,0.09576806,-0.12928689,10.36210537,-0.00532632,-0.21837921,0.02024002
1704712213992897,0.08140286,-0.13407530,10.37168217,0.00106526,-0.20240024,0.01491370
1704712213994872,0.07182605,-0.11971009,10.37647057,-0.02130529,-0.18961707,0.01704423
1704712213996899,0.05746084,-0.13407530,10.38125896,-0.04580637,-0.18748654,0.02876214
1704712213998909,0.04788403,-0.12928689,10.39562416,-0.06817693,-0.17470337,0.03728426
1704712214001007,0.03351882,-0.11492168,10.40998936,-0.06817693,-0.16405073,0.03408846
1704712214002875,0.02394202,-0.12928689,10.41956615,-0.08415589,-0.15872440,0.02982740
1704712214004895,0.01436521,-0.11492168,10.43393135,-0.10972223,-0.15020229,0.02876214
1704712214006944,0.00000000,-0.11971009,10.45308495,-0.13315806,-0.12357067,0.02876214
1704712214008926,0.00000000,-0.12928689,10.46745014,-0.12996227,-0.10226539,0.02450108
1704712214010844,-0.00957681,-0.11013328,10.48660374,-0.13422331,-0.10546118,0.02450108
1704712214013024,-0.01915361,-0.12928689,10.50096893,-0.16085494,-0.09480853,0.01171791
1704712214014914,-0.02873042,-0.11013328,10.52012253,-0.17789917,-0.07137272,0.00319579
1704712214016900,-0.03351882,-0.11013328,10.53448772,-0.17576863,-0.05752428,0.00000000
1704712214018892,-0.02873042,-0.12928689,10.53448772,-0.19068234,-0.04261058,-0.01384844
1704712214020863,-0.03351882,-0.10534488,10.54406452,-0.19600865,-0.04048005,-0.02130529
1704712214022898,-0.04309563,-0.11492168,10.57279491,-0.19174761,-0.03195793,-0.01491370
1704712214024893,-0.03830723,-0.11492168,10.56321812,-0.18855180,0.00000000,-0.02343582
1704712214026904,-0.05746084,-0.09576806,10.58716011,-0.20133498,0.01917476,-0.03621899
1704712214028883,-0.05746084,-0.11013328,10.60631371,-0.19494340,0.02450108,-0.03195793
1704712214030872,-0.05746084,-0.09576806,10.59673691,-0.18535601,0.03408846,-0.03195793
1704712214032905,-0.07661445,-0.09097967,10.63025570,-0.17576863,0.05539375,-0.03408846
1704712214034902,-0.07182605,-0.09576806,10.63025570,-0.17150757,0.06817693,-0.03834952
1704712214036888,-0.08140286,-0.07661445,10.62546730,-0.16298546,0.07776430,-0.03089267
1704712214038881,-0.09097967,-0.08140286,10.64940929,-0.14913702,0.09800433,-0.03621899
1704712214040910,-0.08140286,-0.08140286,10.63025570,-0.14061491,0.11504856,-0.03621899
1704712214042918,-0.10055647,-0.06224924,10.64462090,-0.13209279,0.12463594,-0.02663161
1704712214044888,-0.10055647,-0.07182605,10.66856289,-0.10759171,0.13954964,-0.01384844
1704712214049095,-0.11013328,-0.04788403,10.66856289,-0.08202536,0.17363811,-0.01065264
1704712214049907,-0.10055647,-0.04309563,10.66377449,-0.07243798,0.17363811,-0.00745685
1704712214052361,-0.11013328,-0.01915361,10.66377449,-0.03089267,0.15872440,0.00000000
1704712214053374,-0.11013328,-0.02394202,10.67813969,-0.02876214,0.15765914,-0.00319579
1704712214055036,-0.11013328,-0.02394202,10.67813969,-0.02982740,0.16085494,0.00000000
1704712214056906,-0.09097967,-0.00957681,10.66377449,-0.02343582,0.17576863,-0.00639159
1704712214058890,-0.10534488,0.00957681,10.66377449,-0.00106526,0.18002969,-0.00106526
1704712214060881,-0.09097967,0.00957681,10.67813969,0.02130529,0.16618125,0.01278317
1704712214062896,-0.07661445,0.02394202,10.65898609,0.02450108,0.15978967,-0.00532632
1704712214064948,-0.09097967,0.03351882,10.68292809,0.02556635,0.16085494,-0.01065264
1704712214066904,-0.06703765,0.04309563,10.68771648,0.04793690,0.18322548,-0.01704423
1704712214068901,-0.06703765,0.05267244,10.67335129,0.06391586,0.19068234,-0.00958738
1704712214070841,-0.06703765,0.05267244,10.69729328,0.07563377,0.18855180,-0.00426106
1704712214072916,-0.03830723,0.05746084,10.68771648,0.07030746,0.18002969,-0.01065264
1704712214074901,-0.05267244,0.05267244,10.69250488,0.07669904,0.18109496,-0.02024002
1704712214076942,-0.03830723,0.05267244,10.71644688,0.11291803,0.18642128,-0.02450108
1704712214078894,-0.01915361,0.05267244,10.69729328,0.10759171,0.16937704,-0.00745685
1704712214080993,-0.02873042,0.05267244,10.72123528,0.10120012,0.16405073,-0.01065264
1704712214082924,0.00000000,0.04788403,10.73081207,0.11291803,0.16192019,-0.03728426
1704712214084985,0.00000000,0.03830723,10.72123528,0.11398330,0.13954964,-0.02663161
1704712214086869,0.00957681,0.04309563,10.75475407,0.09906960,0.11824435,-0.01597897
1704712214088841,0.03830723,0.03351882,10.75475407,0.10120012,0.11078750,-0.02024002
1704712214090876,0.02873042,0.01915361,10.75475407,0.09800433,0.11398330,-0.02130529
1704712214092909,0.05267244,0.02873042,10.77390766,0.09374327,0.10120012,-0.01810949
1704712214095033,0.06703765,0.00957681,10.77390766,0.07882957,0.06391586,-0.00532632
1704712214096942,0.07182605,0.01436521,10.79784966,0.07243798,0.04793690,-0.01278317
1704712214098965,0.08140286,0.00957681,10.79784966,0.07350325,0.05113269,-0.00639159
1704712214100879,0.08140286,-0.00957681,10.78348446,0.09374327,0.04474111,0.00106526
1704712214103037,0.08619126,0.00478840,10.79306126,0.07669904,0.01491370,0.00958738
1704712214104901,0.10055647,-0.01915361,10.79784966,0.04261058,-0.00319579,0.00000000
1704712214106908,0.09097967,-0.02873042,10.79306126,0.04261058,-0.00532632,0.00319579
1704712214108916,0.10534488,-0.01915361,10.79784966,0.04793690,-0.01917476,0.00958738
1704712214110881,0.11013328,-0.05267244,10.77869606,0.03089267,-0.03834952,0.01065264
1704712214112871,0.10534488,-0.03830723,10.76911926,0.02982740,-0.05752428,0.00000000
1704712214114901,0.11013328,-0.05267244,10.77390766,0.03302320,-0.05858954,0.00213053
1704712214116936,0.11013328,-0.06703765,10.75475407,0.02663161,-0.07030746,0.01065264
1704712214118916,0.10534488,-0.04788403,10.74517727,0.02769688,-0.08628642,0.01278317
1704712214120847,0.11492168,-0.08619126,10.73081207,0.03089267,-0.09267800,0.01597897
1704712214122890,0.11013328,-0.07661445,10.70208168,0.01917476,-0.09054748,0.02769688
1704712214124905,0.10534488,-0.07182605,10.70687008,-0.00106526,-0.09480853,0.03195793
1704712214126883,0.11013328,-0.10055647,10.69250488,-0.00852212,-0.11504856,0.03302320
1704712214128877,0.10055647,-0.07661445,10.66856289,-0.01704423,-0.10652644,0.03302320
1704712214130867,0.10055647,-0.09576806,10.67335129,-0.01278317,-0.09480853,0.02450108
1704712214132893,0.10055647,-0.10055647,10.64462090,-0.01810949,-0.08628642,0.01597897
1704712214134901,0.08140286,-0.08140286,10.64940929,-0.03621899,-0.07669904,0.01917476
1704712214136912,0.08619126,-0.10534488,10.65419769,-0.03941479,-0.07989483,0.02024002
1704712214139123,0.07182605,-0.08619126,10.62067890,-0.02556635,-0.07989483,0.01065264
1704712214140888,0.06703765,-0.10055647,10.63025570,-0.02450108,-0.06178534,0.00745685
1704712214142896,0.07182605,-0.10055647,10.61589050,-0.03621899,-0.05752428,0.00958738
1704712214144913,0.05267244,-0.07661445,10.60631371,-0.04474111,-0.06178534,0.01171791
1704712214146906,0.05267244,-0.09576806,10.63025570,-0.04580637,-0.06711166,0.01065264
1704712214148920,0.05267244,-0.09097967,10.60152531,-0.05432849,-0.06285060,0.01171791
1704712214150873,0.03830723,-0.07661445,10.60631371,-0.06072007,-0.06391586,0.01704423
1704712214152911,0.04788403,-0.09576806,10.61110210,-0.06072007,-0.05113269,0.01065264
1704712214154898,0.03830723,-0.08140286,10.57279491,-0.07456851,-0.03728426,0.00426106
1704712214156937,0.02873042,-0.08619126,10.59194851,-0.08415589,-0.03515373,-0.00745685
1704712214158932,0.03351882,-0.09097967,10.56800652,-0.07137272,-0.03834952,0.00106526
1704712214161007,0.01436521,-0.08140286,10.54406452,-0.05858954,-0.02556635,0.00000000
1704712214162911,0.01915361,-0.09576806,10.56321812,-0.07350325,0.00213053,0.00319579
1704712214164942,0.02394202,-0.09097967,10.51533413,-0.08841695,0.00532632,-0.00106526
1704712214166916,0.00957681,-0.08619126,10.51533413,-0.07456851,0.00213053,0.00532632
1704712214168897,0.01436521,-0.09097967,10.51533413,-0.06072007,-0.00106526,0.00319579
1704712214170833,0.00478840,-0.08140286,10.47702694,-0.07350325,0.00213053,0.00958738
1704712214172886,0.00478840,-0.09097967,10.49618053,-0.09161274,0.01810949,0.00000000
1704712214174919,0.01436521,-0.08140286,10.47702694,-0.08948221,0.02450108,-0.00106526
1704712214176955,0.00000000,-0.08140286,10.44829655,-0.07989483,0.02982740,-0.00745685
1704712214178902,0.00478840,-0.08140286,10.46266174,-0.10439591,0.03515373,-0.01597897
1704712214180908,0.00478840,-0.07182605,10.43871975,-0.10226539,0.03408846,-0.00639159
1704712214182910,-0.00478840,-0.07182605,10.43393135,-0.10652644,0.03408846,0.00319579
1704712214184919,0.00957681,-0.06703765,10.42914295,-0.09906960,0.04154531,0.00319579
1704712214186914,0.00000000,-0.05746084,10.39562416,-0.09161274,0.04900216,0.00213053
1704712214188858,-0.00478840,-0.05267244,10.40998936,-0.06711166,0.04367584,0.00639159
1704712214190894,-0.00478840,-0.04309563,10.40520096,-0.06072007,0.04261058,-0.00106526
1704712214192897,-0.01436521,-0.03830723,10.39083576,-0.04261058,0.05219796,-0.00426106
1704712214194900,-0.00957681,-0.02873042,10.40520096,-0.03941479,0.05113269,-0.00106526
1704712214196913,-0.01436521,-0.01436521,10.39562416,-0.03408846,0.04580637,-0.00426106
1704712214198953,-0.01915361,-0.01436521,10.40041256,-0.03302320,0.04154531,-0.00852212
1704712214201003,-0.00957681,0.00000000,10.41477776,-0.03302320,0.04048005,-0.01278317
1704712214202905,-0.01436521,0.00478840,10.40520096,-0.04261058,0.04261058,-0.01597897
1704712214204896,-0.01436521,0.00478840,10.41477776,-0.02024002,0.04900216,-0.01917476
1704712214206943,-0.00478840,0.01436521,10.41956615,0.00213053,0.05219796,-0.02130529
1704712214208889,-0.00957681,0.01436521,10.40998936,-0.00852212,0.05432849,-0.01917476
1704712214210871,-0.00478840,0.02394202,10.42914295,-0.01065264,0.04367584,-0.01917476
1704712214212894,-0.00478840,0.02394202,10.42914295,0.01171791,0.04580637,-0.01597897
1704712214214872,-0.00478840,0.02394202,10.42435455,0.02450108,0.05645901,-0.02343582
1704712214216905,0.00478840,0.03351882,10.43393135,0.02343582,0.05965481,-0.02556635
1704712214218891,0.00000000,0.03351882,10.43393135,0.02769688,0.05432849,-0.02982740
1704712214220892,0.00478840,0.03830723,10.43871975,0.04580637,0.05219796,-0.03728426
1704712214222968,0.00957681,0.04309563,10.44350815,0.05432849,0.05645901,-0.04367584
1704712214224944,0.00957681,0.04309563,10.43871975,0.05645901,0.04793690,-0.03728426
1704712214226915,0.01915361,0.05746084,10.44350815,0.05858954,0.03941479,-0.03195793
1704712214228898,0.01915361,0.04788403,10.44350815,0.06072007,0.04154531,-0.03621899
1704712214230860,0.01915361,0.04788403,10.43393135,0.05965481,0.03941479,-0.03089267
1704712214232926,0.03351882,0.06224924,10.43393135,0.06498113,0.02982740,-0.01917476
1704712214234895,0.03351882,0.04788403,10.43393135,0.06817693,0.02769688,-0.01810949
1704712214236919,0.03830723,0.05267244,10.41956615,0.07137272,0.02876214,-0.02769688
1704712214238896,0.04788403,0.04788403,10.42435455,0.07776430,0.02450108,-0.01597897
1704712214240983,0.04309563,0.03830723,10.41477776,0.08948221,0.02450108,-0.00852212
1704712214242892,0.05746084,0.04788403,10.40520096,0.09693906,0.02024002,-0.01171791
1704712214244908,0.05267244,0.02873042,10.40041256,0.09267800,0.02769688,-0.01704423
1704712214246926,0.05267244,0.02873042,10.39083576,0.09161274,0.02130529,-0.01065264
1704712214248940,0.06224924,0.02873042,10.38125896,0.08948221,0.01704423,-0.00958738
1704712214250877,0.05267244,0.00478840,10.38125896,0.09054748,0.01278317,-0.01065264
1704712214252921,0.05746084,0.00957681,10.36210537,0.08948221,0.01171791,-0.00852212
1704712214254868,0.06224924,-0.00478840,10.36210537,0.07456851,0.00319579,-0.00426106
1704712214256905,0.06224924,-0.01915361,10.35252857,0.07456851,-0.00639159,-0.00106526
1704712214259175,0.07661445,-0.01915361,10.32858658,0.07669904,-0.00745685,-0.00213053
1704712214260875,0.06703765,-0.04788403,10.32858658,0.06711166,-0.00213053,0.01278317
1704712214262887,0.07182605,-0.04309563,10.31422138,0.05113269,-0.00958738,0.01278317
1704712214264952,0.08140286,-0.05746084,10.30464458,0.02556635,-0.01597897,0.01491370
1704712214266925,0.07661445,-0.08140286,10.30943298,0.02130529,-0.00852212,0.01491370
1704712214268907,0.09097967,-0.07182605,10.29027843,0.01597897,-0.01597897,0.01171791
1704712214270875,0.09576806,-0.10055647,10.29027843,-0.00319579,-0.04048005,0.00745685
1704712214272892,0.08619126,-0.10534488,10.29506683,-0.02769688,-0.04367584,0.00958738
1704712214274991,0.09097967,-0.10534488,10.28549004,-0.02024002,-0.03302320,0.01065264
1704712214276926,0.08619126,-0.12928689,10.29506683,-0.00426106,-0.02130529,-0.00106526
1704712214278889,0.09576806,-0.10534488,10.28549004,-0.01917476,-0.04261058,-0.00532632
1704712214280996,0.09576806,-0.11492168,10.28070164,-0.02982740,-0.05326322,-0.00958738
1704712214282902,0.08140286,-0.12449849,10.29985619,-0.02024002,-0.03834952,-0.01597897
1704712214284904,0.09097967,-0.10534488,10.29506683,-0.01810949,-0.03515373,-0.01491370
1704712214286892,0.08619126,-0.12449849,10.29027843,-0.03408846,-0.04687164,-0.00958738
1704712214288905,0.07661445,-0.10534488,10.29506683,-0.04048005,-0.05858954,-0.01491370
1704712214290882,0.08619126,-0.10055647,10.29506683,-0.03089267,-0.05645901,-0.02024002
1704712214292936,0.07661445,-0.11492168,10.30464458,-0.03089267,-0.05752428,-0.00958738
1704712214294896,0.07661445,-0.08140286,10.30464458,-0.04154531,-0.06391586,-0.00852212
1704712214296896,0.07661445,-0.09576806,10.29985619,-0.02663161,-0.06924219,-0.00532632
1704712214298888,0.06703765,-0.08619126,10.30464458,-0.00745685,-0.06285060,-0.00426106
1704712214300911,0.07661445,-0.06224924,10.30464458,-0.01704423,-0.06285060,-0.00745685
1704712214303021,0.07182605,-0.07661445,10.31900978,-0.03408846,-0.07669904,-0.01065264
1704712214304941,0.06224924,-0.05267244,10.32379818,-0.02556635,-0.07776430,-0.00213053
1704712214306905,0.06703765,-0.05267244,10.32858658,-0.02343582,-0.06604639,-0.00639159
1704712214308965,0.06224924,-0.05746084,10.33337498,-0.03408846,-0.06924219,-0.00745685
1704712214310882,0.06224924,-0.02873042,10.34774017,-0.04367584,-0.08522116,-0.00639159
1704712214312886,0.06224924,-0.04788403,10.36210537,-0.04687164,-0.08415589,-0.00106526
1704712214314912,0.06224924,-0.03830723,10.36689377,-0.04154531,-0.07563377,0.00106526
1704712214316943,0.06224924,-0.02873042,10.37647057,-0.03195793,-0.08202536,0.00319579
1704712214318910,0.06703765,-0.04788403,10.38125896,-0.04048005,-0.07350325,-0.00958738
1704712214320876,0.06703765,-0.03351882,10.38604736,-0.05432849,-0.07456851,-0.00319579
1704712214322881,0.06703765,-0.04309563,10.40520096,-0.05006743,-0.08628642,-0.01065264
1704712214324973,0.07182605,-0.05267244,10.40041256,-0.05113269,-0.08735169,-0.00106526
1704712214326937,0.06703765,-0.03830723,10.40998936,-0.05326322,-0.07882957,-0.00106526
1704712214328891,0.07661445,-0.06224924,10.42435455,-0.05219796,-0.08096009,-0.00426106
1704712214330875,0.08140286,-0.05267244,10.41477776,-0.05539375,-0.08522116,-0.00213053
1704712214332931,0.07661445,-0.05267244,10.44350815,-0.05006743,-0.08735169,0.00532632
1704712214334913,0.08619126,-0.06703765,10.44350815,-0.04687164,-0.08309063,0.00639159
1704712214336916,0.07661445,-0.05267244,10.43871975,-0.04474111,-0.06711166,0.00745685
1704712214338893,0.07661445,-0.06224924,10.46266174,-0.04687164,-0.05858954,0.00958738
1704712214340842,0.08619126,-0.06703765,10.44350815,-0.04048005,-0.05965481,0.00319579
1704712214342903,0.07182605,-0.05267244,10.46266174,-0.05113269,-0.05858954,0.00745685
1704712214344893,0.07661445,-0.06703765,10.47702694,-0.03941479,-0.04793690,0.01491370
1704712214347022,0.07182605,-0.05746084,10.45787334,-0.02024002,-0.03408846,0.01597897
1704712214348887,0.06224924,-0.05267244,10.48181534,-0.00319579,-0.01917476,-0.00426106
1704712214350903,0.07182605,-0.05746084,10.46745014,-0.00745685,-0.01491370,-0.00319579
1704712214352923,0.06224924,-0.03830723,10.46266174,0.00213053,-0.01491370,0.00106526
1704712214354893,0.05746084,-0.04309563,10.48660374,0.01704423,-0.01597897,-0.00639159
1704712214356907,0.06703765,-0.04309563,10.46266174,0.00532632,-0.00213053,-0.00852212
1704712214358943,0.05267244,-0.02873042,10.48181534,-0.00639159,0.00319579,-0.00852212
1704712214360878,0.06224924,-0.03830723,10.48660374,0.00639159,0.00852212,-0.00213053
1704712214362879,0.05746084,-0.03351882,10.46745014,0.01597897,0.00745685,-0.00106526
1704712214364910,0.04788403,-0.02873042,10.50575733,0.00745685,0.00745685,0.00213053
1704712214366877,0.06703765,-0.03830723,10.49618053,-0.01278317,0.00106526,0.00958738
1704712214368916,0.05267244,-0.02873042,10.49618053,-0.00958738,0.01171791,-0.00213053
1704712214370876,0.05746084,-0.03351882,10.52012253,0.00532632,0.02343582,-0.00958738
1704712214372863,0.07182605,-0.03830723,10.49139214,-0.00213053,0.01597897,-0.00958738
1704712214374917,0.05746084,-0.02873042,10.52012253,-0.01917476,0.00958738,0.00000000
1704712214376955,0.07182605,-0.04309563,10.52969933,-0.01491370,0.00639159,0.00106526
1704712214378903,0.07182605,-0.04309563,10.51054573,-0.00106526,0.01384844,0.00426106
1704712214380869,0.06703765,-0.03830723,10.53927612,0.00319579,0.01491370,0.00213053
1704712214382888,0.08619126,-0.04788403,10.52491093,0.00426106,0.00639159,0.00532632
1704712214384891,0.07182605,-0.04309563,10.53448772,0.01810949,-0.00532632,0.00958738
1704712214386923,0.08140286,-0.03830723,10.55364132,0.02876214,-0.00852212,-0.00213053
1704712214388898,0.09097967,-0.04309563,10.52491093,0.03728426,-0.00745685,0.00000000
1704712214390999,0.08140286,-0.03351882,10.53927612,0.03728426,-0.01491370,0.00319579
1704712214392923,0.10055647,-0.03830723,10.53448772,0.03195793,-0.02237055,-0.00213053
1704712214394906,0.09576806,-0.04309563,10.52491093,0.03408846,-0.02663161,-0.00745685
1704712214396932,0.09576806,-0.02873042,10.54885292,0.04793690,-0.04048005,-0.00426106
1704712214398876,0.11492168,-0.04309563,10.52012253,0.03515373,-0.04261058,-0.00106526
1704712214400908,0.11013328,-0.03830723,10.52491093,0.01917476,-0.03941479,0.00106526
1704712214402923,0.11971009,-0.03351882,10.53927612,0.02237055,-0.05219796,-0.00426106
1704712214404926,0.12928689,-0.05746084,10.51533413,0.01491370,-0.05858954,0.00745685
1704712214406885,0.11971009,-0.03830723,10.53448772,0.00745685,-0.06604639,0.00639159
1704712214408914,0.13886370,-0.05267244,10.52969933,0.01810949,-0.07030746,0.01171791
1704712214410847,0.13407530,-0.06224924,10.51054573,0.01384844,-0.07243798,0.00532632
1704712214412899,0.13886370,-0.04788403,10.52491093,0.00000000,-0.07137272,0.00319579
1704712214414862,0.14844051,-0.07661445,10.50096893,-0.00745685,-0.08841695,0.00213053
1704712214416881,0.14365210,-0.06703765,10.50096893,0.00213053,-0.10652644,0.01491370
1704712214418932,0.15322891,-0.06224924,10.50575733,-0.00213053,-0.10226539,0.01065264
1704712214420890,0.15801731,-0.09097967,10.47702694,-0.01384844,-0.09800433,0.00426106
1704712214422860,0.15322891,-0.06224924,10.47702694,-0.01491370,-0.10865697,-0.00532632
1704712214424918,0.16759412,-0.09097967,10.47223854,-0.01065264,-0.11717909,-0.00213053
1704712214426931,0.16280572,-0.09576806,10.45308495,-0.00639159,-0.11930962,0.00000000
1704712214428890,0.16280572,-0.07661445,10.45787334,-0.01917476,-0.12250541,0.00426106
1704712214430868,0.16759412,-0.11492168,10.43871975,-0.02343582,-0.12463594,0.00213053
1704712214432918,0.16759412,-0.11013328,10.42435455,-0.01171791,-0.12144014,0.00106526
1704712214435128,0.16280572,-0.09576806,10.42914295,-0.01491370,-0.11930962,0.00639159
1704712214436912,0.16280572,-0.11492168,10.40998936,-0.02556635,-0.11291803,-0.00213053
1704712214438893,0.15322891,-0.08140286,10.40998936,-0.02024002,-0.11398330,0.00319579
1704712214440877,0.15322891,-0.10534488,10.40998936,-0.00106526,-0.11185277,0.00745685
1704712214442891,0.15322891,-0.11013328,10.39562416,-0.00426106,-0.10972223,0.00852212
1704712214444908,0.14844051,-0.07182605,10.38604736,-0.00532632,-0.09800433,0.00213053
1704712214446939,0.14365210,-0.09097967,10.39562416,-0.02343582,-0.10120012,0.00639159
1704712214448894,0.13407530,-0.07182605,10.37647057,-0.02130529,-0.10439591,0.01597897
1704712214450890,0.12928689,-0.06703765,10.38604736,-0.02130529,-0.10013486,0.00319579
1704712214452936,0.12928689,-0.09576806,10.38125896,-0.02024002,-0.09267800,-0.00106526
1704712214454878,0.12928689,-0.06703765,10.35731697,-0.02556635,-0.08841695,-0.00426106
1704712214456891,0.11971009,-0.06224924,10.37168217,-0.00958738,-0.09480853,0.00426106
1704712214458917,0.11971009,-0.08140286,10.36210537,-0.00852212,-0.09587380,0.00106526
1704712214460870,0.11492168,-0.04309563,10.34774017,-0.01810949,-0.09480853,0.00213053
1704712214462872,0.11013328,-0.07182605,10.36210537,-0.01810949,-0.09267800,0.00532632
1704712214464912,0.11492168,-0.06224924,10.32858658,-0.01810949,-0.08415589,0.00000000
1704712214466893,0.10534488,-0.04309563,10.33337498,-0.02450108,-0.09267800,0.00319579
1704712214468926,0.11013328,-0.06224924,10.32379818,-0.02343582,-0.09267800,0.00106526
1704712214470896,0.10534488,-0.04309563,10.31422138,-0.01278317,-0.09054748,-0.00106526
1704712214472896,0.09576806,-0.05267244,10.32858658,-0.00745685,-0.07989483,-0.00532632
1704712214474904,0.10534488,-0.05746084,10.30464458,-0.00426106,-0.07989483,-0.01065264
1704712214476945,0.09576806,-0.02873042,10.29027843,-0.01065264,-0.08096009,-0.01917476
1704712214478943,0.09576806,-0.05746084,10.29027843,-0.01384844,-0.08735169,-0.01597897
1704712214480892,0.09576806,-0.04309563,10.27591324,-0.01278317,-0.08841695,-0.01704423
1704712214482888,0.07661445,-0.03351882,10.28549004,-0.02130529,-0.08096009,-0.01171791
1704712214484940,0.08619126,-0.05267244,10.28070164,-0.01491370,-0.06817693,-0.01491370
1704712214486916,0.08140286,-0.02873042,10.25197124,-0.01384844,-0.05858954,-0.01171791
1704712214488877,0.07182605,-0.04788403,10.27112484,-0.01917476,-0.07456851,-0.00958738
1704712214490884,0.07661445,-0.04309563,10.25675964,-0.02556635,-0.08096009,-0.00852212
1704712214492890,0.06703765,-0.02873042,10.25197124,-0.02024002,-0.07137272,-0.01171791
1704712214494915,0.06703765,-0.05267244,10.27112484,-0.02024002,-0.06178534,-0.00852212
1704712214496922,0.07182605,-0.03351882,10.24239445,-0.02876214,-0.06711166,-0.00426106
1704712214498862,0.06224924,-0.03351882,10.26154804,-0.02769688,-0.07350325,-0.00852212
1704712214500883,0.06703765,-0.04309563,10.26633644,-0.01917476,-0.07563377,-0.00745685
1704712214502914,0.06703765,-0.02394202,10.25197124,-0.02237055,-0.07456851,-0.00106526
1704712214504884,0.06224924,-0.03830723,10.28070164,-0.02024002,-0.06498113,-0.00213053
1704712214506876,0.07661445,-0.02394202,10.27112484,-0.02130529,-0.07030746,-0.00639159
1704712214508907,0.06703765,-0.01915361,10.27112484,-0.02237055,-0.07563377,0.00532632
1704712214510900,0.07182605,-0.03351882,10.29506683,-0.02556635,-0.07563377,0.00426106
1704712214512932,0.06703765,-0.01915361,10.29027843,-0.02130529,-0.06604639,0.00532632
1704712214514887,0.06224924,-0.02873042,10.30464458,-0.02343582,-0.05326322,0.00852212
1704712214517029,0.06703765,-0.02873042,10.30464458,-0.02769688,-0.05113269,0.00639159
1704712214518917,0.05746084,-0.03351882,10.30943298,-0.02556635,-0.06072007,0.00319579
1704712214521008,0.05746084,-0.04309563,10.31900978,-0.02130529,-0.06391586,0.00639159
1704712214522930,0.05267244,-0.02873042,10.31422138,-0.00426106,-0.05326322,0.01065264
1704712214524862,0.04788403,-0.03830723,10.32379818,0.00213053,-0.04367584,0.00745685
1704712214526930,0.05267244,-0.03830723,10.32858658,-0.00532632,-0.04154531,0.00958738
1704712214528923,0.05267244,-0.02873042,10.31422138,-0.00532632,-0.04580637,0.00319579
1704712214530856,0.04309563,-0.04788403,10.33337498,-0.00213053,-0.04687164,-0.00106526
1704712214532892,0.04788403,-0.03830723,10.33816338,-0.01065264,-0.04048005,-0.00319579
1704712214534934,0.04309563,-0.03830723,10.33337498,-0.00958738,-0.03621899,0.00319579
1704712214536884,0.04309563,-0.04788403,10.33816338,0.01065264,-0.03408846,0.00106526
1704712214538927,0.04309563,-0.03830723,10.33337498,0.01917476,-0.03195793,0.00745685
1704712214540873,0.03830723,-0.04788403,10.34295177,-0.00639159,-0.02769688,0.00426106
1704712214542888,0.04309563,-0.03830723,10.34774017,-0.01065264,-0.03195793,0.01597897
1704712214544905,0.03830723,-0.03351882,10.34774017,0.00319579,-0.02769688,0.02130529
1704712214546923,0.03351882,-0.04309563,10.35252857,0.00852212,-0.01491370,0.02237055
1704712214548886,0.03351882,-0.02873042,10.34774017,0.00639159,-0.01065264,0.01278317
1704712214550882,0.03351882,-0.03830723,10.35731697,0.00639159,-0.01384844,0.01491370
1704712214552936,0.03830723,-0.03351882,10.35731697,0.00745685,-0.00852212,0.01491370
1704712214554839,0.03351882,-0.01915361,10.35731697,-0.00106526,-0.00213053,0.01384844
1704712214556900,0.03830723,-0.02873042,10.34774017,0.00745685,0.00852212,0.00745685
1704712214558887,0.03830723,-0.01915361,10.34774017,0.00958738,0.01491370,0.01278317
1704712214561060,0.03351882,-0.02394202,10.35252857,0.00532632,0.01704423,0.00958738
1704712214562964,0.03830723,-0.02394202,10.34295177,0.00106526,0.01704423,0.00213053
1704712214564922,0.02873042,-0.02394202,10.34774017,0.00106526,0.02237055,0.00745685
1704712214566867,0.03351882,-0.02873042,10.34295177,0.00745685,0.02876214,0.00426106
1704712214568930,0.03830723,-0.02394202,10.32379818,0.00639159,0.03515373,0.00213053
1704712214570886,0.02394202,-0.01915361,10.32858658,0.00852212,0.03728426,0.00639159
1704712214572911,0.02873042,-0.02873042,10.31422138,0.01597897,0.02982740,0.00106526
1704712214574864,0.01915361,-0.01436521,10.30943298,0.02663161,0.02769688,0.00106526
1704712214576931,0.01436521,-0.01915361,10.31900978,0.01917476,0.03621899,0.00000000
1704712214578922,0.02873042,-0.01915361,10.29506683,0.00852212,0.04687164,0.01384844
1704712214580870,0.01436521,-0.01436521,10.29985619,0.00106526,0.04261058,0.00426106
1704712214582879,0.01915361,-0.02873042,10.30464458,-0.01704423,0.04154531,0.00745685
1704712214584945,0.02394202,-0.02873042,10.29027843,-0.02982740,0.03834952,0.00639159
1704712214586921,0.01436521,-0.02873042,10.30943298,-0.02876214,0.04154531,0.00532632
1704712214588916,0.03351882,-0.04309563,10.28549004,-0.01491370,0.04900216,0.00426106
1704712214590877,0.02394202,-0.03830723,10.28549004,-0.01597897,0.05326322,0.01704423
1704712214592903,0.02394202,-0.03830723,10.29985619,-0.02769688,0.04261058,0.01278317
1704712214595055,0.02394202,-0.04788403,10.29027843,-0.04474111,0.05006743,0.00639159
1704712214596933,0.02394202,-0.04309563,10.30464458,-0.04048005,0.05752428,0.01491370
1704712214598832,0.03351882,-0.04309563,10.29506683,-0.03089267,0.05645901,0.01917476
1704712214600969,0.02394202,-0.03830723,10.29506683,-0.02556635,0.05113269,0.01278317
1704712214602919,0.02394202,-0.03351882,10.30943298,-0.03089267,0.05432849,0.01384844
1704712214605244,0.03830723,-0.04309563,10.29027843,-0.04474111,0.05752428,0.01810949
1704712214606881,0.02394202,-0.02394202,10.31422138,-0.04048005,0.05219796,0.01278317
1704712214608919,0.03830723,-0.02394202,10.31422138,-0.03515373,0.05006743,0.01810949
1704712214610897,0.04788403,-0.03351882,10.29985619,-0.03408846,0.05326322,0.01171791
1704712214612918,0.03351882,-0.00957681,10.32379818,-0.04793690,0.05432849,0.01491370
1704712214614885,0.05267244,-0.01436521,10.32379818,-0.04154531,0.05113269,0.01704423
1704712214616935,0.04788403,-0.00957681,10.32379818,-0.03089267,0.04367584,0.01597897
1704712214618910,0.04788403,0.01436521,10.34774017,-0.03728426,0.04048005,0.01491370
1704712214620883,0.06224924,-0.00478840,10.33337498,-0.04048005,0.04793690,0.01810949
1704712214622922,0.05267244,0.01436521,10.35252857,-0.04367584,0.04474111,0.01917476
1704712214624863,0.06224924,0.01915361,10.37168217,-0.04580637,0.03834952,0.02130529
1704712214626913,0.06224924,0.00000000,10.36210537,-0.04580637,0.04367584,0.01917476
1704712214628917,0.05746084,0.03351882,10.38125896,-0.02769688,0.04687164,0.01384844
1704712214630919,0.07182605,0.01436521,10.38125896,-0.02450108,0.04154531,0.01278317
1704712214632893,0.06703765,0.02394202,10.37647057,-0.03728426,0.04154531,0.01491370
1704712214634917,0.06703765,0.04309563,10.39562416,-0.05006743,0.03941479,0.01171791
1704712214636866,0.07182605,0.00957681,10.38604736,-0.04580637,0.04261058,0.00958738
1704712214638932,0.06703765,0.04788403,10.39562416,-0.03515373,0.04580637,0.01917476
1704712214640874,0.07182605,0.02873042,10.40041256,-0.03302320,0.04687164,0.01597897
1704712214642905,0.07661445,0.02394202,10.38604736,-0.03728426,0.04687164,0.01384844
1704712214644963,0.07182605,0.03351882,10.40041256,-0.03728426,0.05645901,0.02130529
1704712214646945,0.07661445,0.01436521,10.39562416,-0.02556635,0.05113269,0.02343582
1704712214648902,0.07182605,0.04309563,10.38125896,-0.01065264,0.05006743,0.02130529
1704712214650883,0.06224924,0.04309563,10.39562416,-0.00958738,0.05113269,0.02237055
1704712214652925,0.07661445,0.02394202,10.38604736,-0.00745685,0.05326322,0.01810949
1704712214654919,0.06703765,0.05746084,10.37647057,0.00106526,0.04687164,0.01917476
1704712214656902,0.06703765,0.02873042,10.38604736,0.00213053,0.04154531,0.02130529
1704712214658921,0.07661445,0.03830723,10.36689377,0.00532632,0.03621899,0.02024002
1704712214660907,0.06224924,0.04788403,10.37647057,0.00852212,0.04154531,0.01810949
1704712214662951,0.08140286,0.01915361,10.37647057,0.00000000,0.04048005,0.01491370
1704712214664933,0.07661445,0.04788403,10.35252857,0.00426106,0.03408846,0.01278317
1704712214666926,0.06703765,0.02873042,10.37647057,0.01810949,0.02876214,0.01171791
1704712214668979,0.08619126,0.01915361,10.35731697,0.01597897,0.03195793,0.00958738
1704712214670885,0.06224924,0.03351882,10.34774017,0.00000000,0.03302320,0.00426106
1704712214672918,0.08140286,0.01436521,10.36210537,0.01491370,0.02024002,-0.00213053
1704712214674881,0.08140286,0.02394202,10.32379818,0.02450108,0.02663161,-0.00426106
1704712214676896,0.06224924,0.01915361,10.34295177,0.03089267,0.02769688,-0.00745685
1704712214678964,0.07661445,0.01436521,10.33337498,0.02556635,0.03089267,-0.00639159
1704712214680972,0.05267244,0.02873042,10.30943298,0.04474111,0.02343582,0.00426106
1704712214682908,0.06224924,0.02394202,10.31900978,0.06711166,0.02663161,-0.00213053
1704712214684927,0.05746084,0.02394202,10.29506683,0.06285060,0.02769688,-0.01278317
1704712214687005,0.02394202,0.02873042,10.29027843,0.05326322,0.02663161,-0.00319579
1704712214688925,0.03351882,0.02873042,10.27112484,0.05752428,0.02982740,0.00319579
1704712214690898,0.01915361,0.02873042,10.25675964,0.05752428,0.02769688,-0.00213053
1704712214692886,0.00957681,0.02873042,10.27112484,0.04580637,0.02343582,0.00106526
1704712214694936,0.01915361,0.02873042,10.24718285,0.04154531,0.02556635,-0.00213053
1704712214696951,-0.00478840,0.02394202,10.22802925,0.04687164,0.02237055,-0.01065264
1704712214698951,0.00478840,0.03351882,10.23760605,0.04367584,0.02237055,-0.00745685
1704712214700870,-0.00478840,0.02394202,10.19929886,0.03834952,0.02024002,-0.00426106
1704712214703001,-0.00957681,0.02873042,10.19929886,0.03621899,0.01810949,-0.00958738
1704712214704911,0.00478840,0.02873042,10.19451046,0.03621899,0.02237055,0.00213053
1704712214706902,-0.01436521,0.01915361,10.16099167,0.04154531,0.02556635,0.00532632
1704712214708901,0.00000000,0.03830723,10.17056847,0.04474111,0.02450108,-0.00319579
1704712214710887,-0.00478840,0.01915361,10.15620327,0.02876214,0.02876214,-0.00213053
1704712214712936,-0.00957681,0.02394202,10.14183807,0.02130529,0.03408846,0.00319579
1704712214714929,0.00000000,0.03351882,10.14662647,0.03408846,0.03515373,0.00426106
1704712214716907,-0.00957681,0.00957681,10.13226128,0.02982740,0.03302320,0.00213053
1704712214718889,0.00000000,0.03351882,10.12268448,0.00639159,0.04367584,0.00319579
1704712214720896,-0.01436521,0.01436521,10.12268448,0.00639159,0.04367584,0.00000000
1704712214722890,-0.00957681,0.01915361,10.11310768,0.01704423,0.04261058,-0.00745685
1704712214724862,0.00000000,0.03830723,10.10831928,0.00426106,0.03728426,0.00426106
1704712214726897,-0.01436521,0.01915361,10.09874249,0.00213053,0.04474111,0.01065264
1704712214728940,-0.00957681,0.03830723,10.09395409,0.01065264,0.04687164,0.01171791
1704712214730905,-0.01436521,0.02394202,10.10353088,0.01491370,0.05432849,0.00426106
1704712214732886,-0.01436521,0.01915361,10.09395409,0.00319579,0.05858954,0.00000000
1704712214734920,-0.00957681,0.03830723,10.07958889,-0.01171791,0.05539375,-0.00426106
1704712214736965,-0.01915361,0.00478840,10.09874249,-0.01065264,0.05965481,0.00532632
1704712214738965,-0.00957681,0.02394202,10.08437729,-0.00639159,0.06711166,0.00106526
1704712214740880,-0.01436521,0.01915361,10.08916569,-0.01065264,0.06924219,-0.00532632
1704712214742883,-0.01436521,0.00957681,10.09874249,-0.01597897,0.06924219,-0.00426106
1704712214744925,0.00000000,0.02873042,10.07958889,-0.00745685,0.06711166,0.00426106
1704712214746952,-0.00957681,0.00000000,10.09874249,0.00000000,0.07137272,-0.00745685
1704712214748926,0.00000000,0.01915361,10.09874249,0.00319579,0.07137272,0.00106526
1704712214750868,0.00478840,0.01436521,10.09874249,0.01491370,0.08309063,0.00319579
1704712214752928,0.00478840,0.00478840,10.10831928,0.02769688,0.08309063,0.00319579
1704712214755008,0.01436521,0.02873042,10.09874249,0.03302320,0.07882957,-0.00958738
1704712214756959,0.01436521,0.00957681,10.10831928,0.02982740,0.08522116,-0.00106526
1704712214758918,0.01436521,0.02394202,10.11789608,0.02769688,0.09161274,0.00319579
1704712214760894,0.01915361,0.02873042,10.11310768,0.03195793,0.09693906,0.00213053
1704712214762953,0.01915361,0.01436521,10.12268448,0.03728426,0.09800433,0.00852212
1704712214764922,0.02394202,0.04309563,10.12268448,0.03834952,0.10226539,0.00426106
1704712214766928,0.02394202,0.02394202,10.12747288,0.04048005,0.09693906,0.00213053
1704712214768904,0.03351882,0.02873042,10.13704967,0.04048005,0.09693906,-0.00639159
1704712214770907,0.03830723,0.02394202,10.13226128,0.04261058,0.09906960,-0.00106526
1704712214772928,0.04309563,0.01915361,10.13226128,0.04367584,0.10120012,-0.00319579
1704712214775099,0.04309563,0.03830723,10.13704967,0.03195793,0.09906960,0.00213053
1704712214776920,0.05267244,0.01915361,10.14183807,0.01597897,0.09693906,-0.00426106
1704712214778959,0.05746084,0.01915361,10.14183807,0.01597897,0.09374327,0.00852212
1704712214780895,0.04309563,0.02394202,10.14662647,0.02769688,0.08841695,0.01065264
1704712214782941,0.05746084,0.00478840,10.13704967,0.03515373,0.08628642,0.00639159
1704712214784878,0.05267244,0.00957681,10.14183807,0.04261058,0.08948221,0.00000000
1704712214786927,0.04788403,0.00478840,10.15141487,0.04900216,0.08735169,-0.00106526
1704712214788903,0.06224924,-0.00478840,10.14662647,0.05645901,0.07776430,-0.01065264
1704712214790882,0.04788403,-0.00478840,10.15620327,0.06178534,0.06391586,-0.00426106
1704712214792896,0.05746084,-0.00957681,10.16099167,0.06711166,0.06498113,-0.01171791
1704712214794954,0.05746084,-0.01436521,10.16099167,0.06604639,0.07030746,-0.01065264
1704712214796940,0.04788403,-0.00957681,10.17535686,0.07137272,0.06391586,-0.01065264
1704712214798925,0.07182605,-0.00957681,10.17056847,0.09267800,0.04687164,-0.01384844
1704712214800917,0.06224924,-0.00957681,10.17535686,0.09267800,0.04048005,-0.01917476
1704712214802896,0.06224924,0.00000000,10.18014526,0.07563377,0.04793690,-0.00745685
1704712214804934,0.07182605,-0.01436521,10.17535686,0.06711166,0.04793690,-0.00319579
1704712214806903,0.06224924,-0.00478840,10.18493366,0.07882957,0.03621899,0.00213053
1704712214808907,0.08140286,-0.00957681,10.18014526,0.07989483,0.02876214,-0.00426106
1704712214810895,0.07661445,-0.00957681,10.18014526,0.06711166,0.02130529,-0.00106526
1704712214813088,0.07182605,0.00478840,10.18972206,0.05645901,0.01491370,0.00319579
1704712214814930,0.08140286,-0.00957681,10.18493366,0.05539375,0.02343582,-0.00213053
1704712214816916,0.07661445,-0.00478840,10.18493366,0.04367584,0.02556635,-0.00745685
1704712214818879,0.08140286,0.01436521,10.19451046,0.03089267,0.01384844,-0.00213053
1704712214820897,0.09576806,0.00000000,10.18972206,0.03515373,0.00213053,0.00319579
1704712214822914,0.08140286,0.01436521,10.19929886,0.04261058,-0.00106526,-0.00106526
1704712214824882,0.09097967,0.00957681,10.20408726,0.03195793,0.00106526,-0.00532632
1704712214826934,0.09576806,0.00957681,10.19451046,0.02237055,0.00319579,-0.00958738
1704712214828955,0.09097967,0.01915361,10.20887566,0.03195793,-0.01171791,-0.01597897
1704712214830891,0.10534488,0.00478840,10.20887566,0.02556635,-0.01917476,-0.00532632
1704712214832903,0.09097967,0.00957681,10.20887566,0.00852212,-0.02130529,-0.00639159
1704712214834905,0.09576806,0.01436521,10.22802925,-0.00532632,-0.02876214,-0.00319579
1704712214836961,0.10055647,-0.00478840,10.21845245,-0.00213053,-0.03834952,-0.00319579
1704712214838937,0.08619126,0.00478840,10.22802925,-0.00106526,-0.04261058,-0.00639159
1704712214840908,0.10055647,0.00478840,10.23760605,-0.01384844,-0.04367584,-0.01171791
1704712214842894,0.09576806,-0.00957681,10.23281765,-0.02769688,-0.04900216,-0.00106526
1704712214844968,0.08619126,0.00478840,10.26154804,-0.02663161,-0.05113269,0.00106526
1704712214846953,0.09097967,-0.00957681,10.25197124,-0.02237055,-0.04367584,-0.00958738
1704712214848911,0.08140286,-0.00957681,10.25675964,-0.02982740,-0.04048005,-0.00745685
1704712214850851,0.08619126,0.00478840,10.27112484,-0.04367584,-0.04580637,0.00000000
1704712214852919,0.07661445,-0.01436521,10.27591324,-0.03515373,-0.03728426,-0.00213053
1704712214854925,0.07661445,0.00000000,10.28549004,-0.02556635,-0.02769688,0.00000000
1704712214856981,0.07661445,-0.00478840,10.29027843,-0.03089267,-0.02343582,0.00000000
1704712214858919,0.07661445,-0.00957681,10.28549004,-0.02876214,-0.02769688,0.00319579
1704712214860878,0.07182605,0.01436521,10.30464458,-0.00852212,-0.01704423,0.00532632
1704712214862955,0.07182605,-0.00957681,10.30943298,0.00000000,-0.00426106,0.00426106
1704712214864992,0.06703765,0.01436521,10.30464458,-0.01278317,-0.00639159,0.00426106
1704712214866923,0.05746084,0.02394202,10.31900978,-0.01384844,-0.00532632,0.00745685
1704712214868927,0.06703765,0.00957681,10.32379818,-0.00639159,0.00426106,0.00426106
1704712214870913,0.04788403,0.03351882,10.31900978,-0.01491370,0.00426106,-0.00745685
1704712214872932,0.05267244,0.01915361,10.34295177,-0.02876214,-0.00639159,-0.00639159
1704712214874923,0.06224924,0.02394202,10.32858658,-0.02343582,-0.01065264,0.00319579
1704712214876923,0.03830723,0.03351882,10.34295177,-0.01065264,0.00532632,0.00000000
1704712214878956,0.05746084,0.01915361,10.35252857,-0.01065264,0.01491370,0.00106526
1704712214880896,0.04309563,0.03351882,10.32858658,-0.01065264,0.00106526,0.01278317
1704712214882923,0.04309563,0.03351882,10.35731697,-0.00958738,-0.01384844,-0.00213053
1704712214884907,0.05746084,0.02873042,10.34295177,-0.01278317,-0.00745685,-0.00319579
1704712214886948,0.03351882,0.03830723,10.33816338,-0.01065264,0.00532632,0.00213053
1704712214888913,0.05267244,0.03351882,10.35731697,-0.00852212,-0.00213053,0.00532632
1704712214890902,0.04309563,0.03351882,10.32379818,0.00319579,-0.00639159,0.01171791
1704712214892900,0.03830723,0.04309563,10.34295177,0.00852212,-0.00958738,0.01171791
1704712214895064,0.05746084,0.03830723,10.32858658,-0.00106526,-0.00532632,0.00319579
1704712214896985,0.03351882,0.04309563,10.32379818,0.00106526,-0.00852212,0.01704423
1704712214898918,0.04788403,0.04788403,10.33337498,0.01278317,-0.00532632,0.02450108
1704712214900968,0.04309563,0.02873042,10.29985619,0.01491370,-0.00532632,0.01597897
1704712214902948,0.03351882,0.04788403,10.29985619,0.00852212,-0.00958738,0.00639159
1704712214904949,0.04788403,0.04788403,10.30464458,0.01384844,-0.01278317,0.01065264
1704712214906938,0.03351882,0.03830723,10.27591324,0.02024002,-0.00958738,0.00958738
1704712214908873,0.04309563,0.06224924,10.28070164,0.01917476,-0.00213053,0.00745685
1704712214910938,0.04309563,0.04309563,10.26633644,0.02663161,0.00000000,0.00532632
1704712214912933,0.04309563,0.05267244,10.24239445,0.03621899,-0.00319579,0.00106526
1704712214914899,0.04788403,0.05746084,10.23760605,0.02876214,-0.00213053,-0.00639159
1704712214916932,0.04788403,0.03351882,10.22324085,0.01810949,-0.00426106,0.00000000
1704712214918942,0.04788403,0.05267244,10.20408726,0.02130529,-0.00958738,-0.00106526
1704712214920885,0.03830723,0.02873042,10.19929886,0.03621899,-0.01065264,-0.01171791
1704712214922924,0.05267244,0.02873042,10.17056847,0.05006743,-0.00745685,-0.01065264
1704712214924936,0.04309563,0.03830723,10.15141487,0.03515373,-0.02237055,-0.00426106
1704712214926874,0.04788403,0.01436521,10.15141487,0.02024002,-0.02769688,-0.01704423
1704712214928948,0.04309563,0.02873042,10.11789608,0.02663161,-0.01917476,-0.01917476
1704712214930904,0.03351882,0.01436521,10.11310768,0.03515373,-0.02237055,-0.01384844
1704712214932902,0.05746084,0.01436521,10.09395409,0.02982740,-0.03728426,-0.01491370
1704712214934934,0.04309563,0.01915361,10.06043530,0.02237055,-0.04048005,-0.01704423
1704712214936920,0.05267244,0.00478840,10.07480049,0.03728426,-0.02876214,-0.01065264
1704712214939086,0.05746084,0.00957681,10.03170490,0.04793690,-0.03195793,-0.00958738
1704712214940908,0.05746084,0.00957681,10.03170490,0.03834952,-0.04793690,-0.00852212
1704712214942907,0.06703765,0.00957681,10.02212811,0.03302320,-0.05326322,-0.01065264
1704712214944971,0.05267244,0.00478840,9.97903252,0.03515373,-0.04048005,-0.01384844
1704712214947090,0.05746084,0.00957681,9.98382092,0.03834952,-0.03302320,-0.01065264
1704712214948927,0.06703765,0.00478840,9.96466732,0.04793690,-0.04580637,0.00213053
1704712214950954,0.05267244,0.00478840,9.94551373,0.05432849,-0.05219796,-0.00213053
1704712214952923,0.06224924,0.01436521,9.95509052,0.04261058,-0.03195793,-0.00852212
1704712214954950,0.05267244,0.00000000,9.92157173,0.03515373,-0.03089267,0.01065264
1704712214956930,0.06224924,0.01436521,9.92157173,0.04261058,-0.04261058,0.02343582
1704712214958882,0.06224924,0.00000000,9.92157173,0.03728426,-0.03408846,0.01384844
1704712214960854,0.05267244,-0.00478840,9.90241814,0.00639159,-0.02663161,0.01278317
1704712214962960,0.05746084,0.00478840,9.90720654,-0.00213053,-0.03089267,0.01917476
1704712214965017,0.05267244,-0.01436521,9.90241814,0.00852212,-0.02343582,0.01278317
1704712214966919,0.05746084,-0.00478840,9.88805294,0.00639159,-0.00745685,0.00319579
1704712214968990,0.04788403,-0.00957681,9.89284134,-0.00852212,-0.01171791,0.00426106
1704712214970920,0.04788403,-0.01915361,9.89284134,-0.01171791,-0.01704423,0.00213053
1704712214972940,0.04309563,-0.00478840,9.87847614,-0.00106526,-0.00852212,0.00532632
1704712214974952,0.03830723,-0.02394202,9.88805294,-0.01171791,0.00000000,-0.00852212
1704712214976871,0.04788403,-0.00478840,9.87368774,-0.03089267,0.00319579,-0.01171791
1704712214978916,0.03830723,-0.00957681,9.87368774,-0.02343582,0.00532632,-0.00532632
1704712214980954,0.04309563,-0.01915361,9.88805294,-0.00852212,0.00745685,0.00319579
1704712214983049,0.04309563,-0.00478840,9.86889935,-0.01810949,0.00106526,-0.01278317
1704712214985025,0.04309563,-0.01436521,9.88805294,-0.02663161,-0.00319579,0.00319579
1704712214987074,0.04788403,-0.00957681,9.87847614,-0.01704423,-0.00532632,-0.00426106
1704712214989217,0.03830723,-0.01915361,9.85932255,-0.03089267,0.00426106,-0.02769688
1704712214991004,0.05267244,-0.01915361,9.87847614,-0.05858954,-0.00106526,-0.02130529
1704712214992921,0.04788403,-0.01915361,9.86889935,-0.04793690,-0.00958738,-0.01597897
1704712214994909,0.04788403,-0.03351882,9.86889935,-0.03728426,-0.00319579,-0.02450108
1704712214996933,0.05746084,-0.03351882,9.86889935,-0.04793690,0.00426106,-0.02450108
1704712214998947,0.05267244,-0.03351882,9.85932255,-0.05858954,-0.00639159,-0.01917476
1704712215000914,0.06703765,-0.03351882,9.86411095,-0.04793690,-0.00852212,-0.01597897
1704712215002883,0.05746084,-0.03351882,9.86889935,-0.04261058,-0.00319579,-0.02237055
1704712215005069,0.06224924,-0.02873042,9.86411095,-0.04474111,-0.00532632,-0.01065264
1704712215006936,0.07661445,-0.02394202,9.85932255,-0.03621899,-0.01065264,-0.00852212
1704712215009019,0.06224924,-0.02873042,9.85932255,-0.03195793,-0.00426106,-0.00958738
1704712215010856,0.07661445,-0.01915361,9.86411095,-0.03302320,0.00213053,-0.00319579
1704712215012935,0.07182605,-0.02394202,9.87368774,-0.04474111,-0.01171791,0.00106526
1704712215014905,0.07182605,-0.01436521,9.87368774,-0.04474111,-0.01278317,-0.00532632
1704712215016920,0.08140286,-0.01436521,9.87368774,-0.04580637,-0.01171791,-0.00319579
1704712215018924,0.06703765,-0.01436521,9.88326454,-0.04687164,-0.00852212,-0.00213053
1704712215020896,0.08619126,-0.00478840,9.88805294,-0.06072007,-0.00639159,-0.00639159
1704712215023000,0.08140286,-0.01915361,9.88805294,-0.07243798,-0.02130529,0.00000000
1704712215024932,0.07661445,-0.00957681,9.90241814,-0.06604639,-0.02343582,0.00213053
1704712215026922,0.08140286,-0.00957681,9.90241814,-0.05539375,-0.01597897,0.00319579
1704712215028947,0.07661445,-0.01915361,9.91199493,-0.05219796,-0.01810949,-0.00852212
1704712215030949,0.08140286,0.00000000,9.92636013,-0.05858954,-0.02450108,-0.00958738
1704712215032994,0.08619126,-0.01915361,9.92157173,-0.05219796,-0.03195793,-0.01278317
1704712215034894,0.08140286,-0.00957681,9.94072533,-0.04154531,-0.03728426,-0.00106526
1704712215036899,0.08140286,-0.00478840,9.94551373,-0.04048005,-0.03621899,0.00958738
1704712215038993,0.08619126,-0.01436521,9.94551373,-0.04793690,-0.03621899,0.01597897
1704712215041003,0.08140286,0.00000000,9.96945572,-0.04793690,-0.03941479,0.00426106
1704712215043007,0.08619126,-0.01436521,9.96945572,-0.03941479,-0.04474111,0.00532632
1704712215044915,0.08619126,-0.00478840,9.98382092,-0.04048005,-0.05113269,0.00319579
1704712215046934,0.07661445,0.00000000,9.99818611,-0.04367584,-0.04580637,0.00532632
1704712215048950,0.08619126,-0.00478840,10.00297451,-0.04154531,-0.03408846,0.00639159
1704712215050907,0.07661445,0.00478840,10.02691650,-0.03621899,-0.03515373,0.00426106
1704712215052883,0.07661445,0.00000000,10.03170490,-0.05432849,-0.05432849,0.00106526
1704712215054969,0.08140286,0.00000000,10.04128170,-0.05432849,-0.05539375,0.00213053
1704712215056973,0.06703765,0.00957681,10.06043530,-0.03728426,-0.04900216,-0.00213053
1704712215058928,0.08140286,0.00478840,10.06522369,-0.04367584,-0.03941479,-0.01491370
1704712215060888,0.07661445,0.00000000,10.07001209,-0.06285060,-0.04154531,-0.01278317
1704712215062922,0.06703765,0.01436521,10.08916569,-0.05326322,-0.04687164,-0.00852212
1704712215064943,0.07661445,0.00478840,10.09395409,-0.03302320,-0.04367584,0.00532632
1704712215066978,0.05746084,0.00957681,10.10353088,-0.04261058,-0.02556635,0.00532632
1704712215068905,0.06703765,0.01915361,10.11310768,-0.05539375,-0.02769688,0.00319579
1704712215070867,0.06703765,0.00478840,10.10831928,-0.05219796,-0.03515373,0.00000000
1704712215072955,0.05267244,0.01915361,10.11789608,-0.03408846,-0.02237055,0.00745685
1704712215074926,0.06224924,0.01436521,10.13226128,-0.03195793,-0.01704423,-0.00213053
1704712215076934,0.05267244,0.00957681,10.12747288,-0.04154531,-0.02556635,-0.00213053
1704712215078911,0.04788403,0.02394202,10.14662647,-0.04261058,-0.01704423,0.00000000
1704712215081054,0.05746084,0.00000000,10.14662647,-0.02663161,-0.00426106,-0.00639159
1704712215082972,0.04309563,0.01436521,10.14662647,-0.02982740,-0.00745685,-0.00852212
1704712215084940,0.04788403,0.01436521,10.17056847,-0.04048005,-0.01278317,0.00000000
1704712215086911,0.04788403,-0.00478840,10.16578007,-0.04474111,-0.01065264,-0.00319579
1704712215089073,0.03351882,0.01436521,10.18493366,-0.03302320,-0.00639159,-0.00852212
1704712215090934,0.04309563,-0.00478840,10.18972206,-0.03195793,0.00213053,-0.00639159
1704712215092940,0.03351882,0.00000000,10.18014526,-0.03302320,-0.00213053,-0.00319579
1704712215094885,0.02873042,0.00478840,10.20887566,-0.02982740,-0.00532632,-0.01065264
1704712215096970,0.03830723,-0.01436521,10.19929886,-0.03621899,-0.00532632,-0.00106526
1704712215098956,0.02873042,0.00000000,10.20887566,-0.04474111,-0.00852212,-0.00106526
1704712215100894,0.03351882,-0.00478840,10.21845245,-0.05006743,-0.00958738,0.00532632
1704712215102916,0.03830723,-0.01915361,10.20887566,-0.04687164,-0.00213053,0.00106526
1704712215104907,0.02394202,-0.00478840,10.22324085,-0.03408846,0.00639159,0.00000000
1704712215106967,0.03830723,-0.01436521,10.21845245,-0.02663161,0.00213053,-0.00213053
1704712215108829,0.02873042,-0.00957681,10.20887566,-0.03195793,0.00000000,0.00639159
1704712215110877,0.02873042,0.00000000,10.21366405,-0.02769688,0.00319579,-0.00106526
1704712215112969,0.04309563,-0.00957681,10.20408726,-0.02663161,0.00319579,-0.00106526
1704712215115099,0.02873042,0.00478840,10.19929886,-0.03302320,0.00106526,0.00639159
1704712215116928,0.03830723,0.00000000,10.19929886,-0.02556635,0.00745685,0.00745685
1704712215118938,0.03351882,0.00000000,10.18493366,-0.02130529,0.00532632,0.00319579
1704712215120967,0.02394202,0.02873042,10.18493366,-0.02237055,0.00532632,-0.00426106
1704712215122951,0.03830723,0.01915361,10.19451046,-0.02769688,0.00532632,-0.00213053
1704712215124954,0.02873042,0.01915361,10.17535686,-0.02982740,0.00106526,0.00319579
1704712215126940,0.02394202,0.03830723,10.18014526,-0.02450108,-0.00106526,0.00213053
1704712215128892,0.03351882,0.01436521,10.17056847,-0.02237055,-0.00639159,0.00319579
1704712215130931,0.02394202,0.03830723,10.15141487,-0.02343582,0.00000000,0.00426106
1704712215132934,0.03351882,0.03351882,10.17056847,-0.03089267,-0.00213053,0.00532632
1704712215134924,0.04309563,0.02394202,10.14183807,-0.03408846,-0.00639159,0.00852212
1704712215136918,0.03351882,0.04788403,10.14183807,-0.03941479,-0.00745685,0.01065264
1704712215138957,0.04788403,0.02873042,10.14662647,-0.04580637,0.00000000,0.00639159
1704712215140951,0.04309563,0.03830723,10.11310768,-0.04687164,-0.00213053,0.00532632
1704712215142960,0.04788403,0.03830723,10.13226128,-0.04580637,-0.00958738,0.01065264
1704712215144903,0.06224924,0.02394202,10.11310768,-0.05432849,-0.01917476,0.00000000
1704712215146954,0.04788403,0.03830723,10.10353088,-0.05006743,-0.01384844,0.00000000
1704712215148970,0.06224924,0.02873042,10.12268448,-0.03408846,-0.00958738,0.00745685
1704712215150913,0.06703765,0.02873042,10.08916569,-0.04367584,-0.01597897,0.00639159
1704712215152874,0.06224924,0.03830723,10.09874249,-0.04793690,-0.02876214,0.00106526
1704712215154958,0.07661445,0.02394202,10.09874249,-0.02876214,-0.02876214,-0.01171791
1704712215156976,0.07182605,0.02873042,10.07958889,-0.02556635,-0.02769688,-0.00639159
1704712215159034,0.07661445,0.03830723,10.08916569,-0.03195793,-0.03302320,-0.00106526
1704712215160910,0.08140286,0.02394202,10.06522369,-0.02769688,-0.03728426,-0.00319579
1704712215162888,0.08140286,0.02873042,10.06522369,-0.02876214,-0.04048005,-0.00213053
1704712215164959,0.08619126,0.02873042,10.07001209,-0.03195793,-0.03195793,0.00639159
1704712215166955,0.08619126,0.01436521,10.05564690,-0.04367584,-0.04048005,0.00852212
1704712215168956,0.08619126,0.02873042,10.04607010,-0.03621899,-0.04687164,0.00745685
1704712215170895,0.08619126,0.00957681,10.05085850,-0.02982740,-0.03941479,0.00106526
1704712215172946,0.08619126,0.01436521,10.03649330,-0.02876214,-0.02982740,-0.01278317
1704712215174943,0.08140286,0.02394202,10.04128170,-0.03302320,-0.03515373,-0.01171791
1704712215176949,0.08619126,0.00957681,10.04607010,-0.01704423,-0.03621899,0.00000000
1704712215178880,0.07661445,0.02394202,10.01733971,-0.00426106,-0.02343582,-0.00213053
1704712215180926,0.07182605,0.01436521,10.04128170,-0.00852212,-0.01491370,0.00532632
1704712215182931,0.07661445,0.01436521,10.02691650,-0.02130529,-0.01171791,0.00213053
1704712215184914,0.06224924,0.02394202,10.01733971,-0.00426106,-0.01384844,-0.00639159
1704712215186929,0.06703765,0.00957681,10.03649330,0.01491370,-0.00852212,-0.01384844
1704712215188947,0.06224924,0.02394202,10.00776291,0.00426106,-0.00106526,-0.00106526
1704712215191069,0.05267244,0.02873042,10.02212811,0.00426106,-0.00319579,-0.00106526
1704712215192950,0.05746084,0.02394202,10.02212811,0.01597897,-0.00213053,-0.00852212
1704712215194922,0.04309563,0.03351882,9.99818611,0.01171791,0.00319579,-0.00532632
1704712215196910,0.05267244,0.02873042,10.01733971,-0.00319579,0.00319579,-0.00426106
1704712215198976,0.04309563,0.03351882,9.98860931,0.00000000,-0.00639159,-0.00213053
1704712215200910,0.03830723,0.02873042,9.99818611,-0.00426106,0.00639159,-0.00213053
1704712215202940,0.04788403,0.02873042,10.00297451,-0.00532632,0.01384844,0.00426106
1704712215204934,0.04309563,0.03351882,9.98382092,-0.01278317,0.00000000,0.00532632
1704712215206977,0.04788403,0.02873042,9.98860931,-0.01810949,-0.00745685,0.01171791
1704712215208943,0.04309563,0.02394202,9.98860931,-0.01384844,-0.00426106,-0.00213053
1704712215210898,0.04309563,0.02873042,9.98382092,-0.00319579,0.00000000,0.00000000
1704712215212918,0.05267244,0.02873042,9.97903252,-0.01384844,-0.01171791,0.00319579
1704712215214946,0.04309563,0.02394202,9.97903252,-0.01597897,-0.01810949,0.00319579
1704712215216930,0.05746084,0.02873042,9.97424412,0.00213053,-0.01917476,-0.00106526
1704712215218951,0.05267244,0.01915361,9.97424412,-0.00319579,-0.02343582,-0.00745685
1704712215220874,0.05746084,0.01915361,9.97903252,-0.01917476,-0.03089267,-0.00426106
1704712215222934,0.06224924,0.01915361,9.96945572,-0.02237055,-0.03941479,0.00213053
1704712215224941,0.05746084,0.00957681,9.97903252,-0.00958738,-0.03515373,-0.00319579
1704712215226963,0.06703765,0.02394202,9.97424412,-0.00852212,-0.03302320,-0.00319579
1704712215228890,0.06703765,0.01915361,9.97424412,0.00000000,-0.03941479,-0.00106526
1704712215230898,0.07182605,0.01915361,9.98382092,-0.00106526,-0.05113269,0.00319579
1704712215232933,0.06703765,0.02873042,9.96466732,0.01171791,-0.04048005,0.00106526
1704712215234986,0.06703765,0.01915361,9.98382092,0.02130529,-0.03515373,0.00213053
1704712215236895,0.07661445,0.03351882,9.97903252,0.01384844,-0.04261058,0.00213053
1704712215238939,0.07182605,0.02873042,9.96945572,0.01171791,-0.05326322,0.00106526
1704712215241091,0.07182605,0.02873042,9.98860931,0.02130529,-0.03621899,0.00213053
1704712215242933,0.06224924,0.03351882,9.97903252,0.01278317,-0.03728426,0.00639159
1704712215244928,0.06703765,0.02873042,9.98860931,0.00426106,-0.04793690,0.00319579
1704712215246945,0.06703765,0.03830723,9.98860931,0.00426106,-0.05006743,0.00426106
1704712215248958,0.06224924,0.02873042,9.97903252,0.00958738,-0.03515373,0.00319579
1704712215250901,0.07182605,0.02873042,9.99339771,-0.00426106,-0.02663161,0.00213053
1704712215252925,0.06224924,0.03351882,9.99339771,-0.00639159,-0.03302320,0.00000000
1704712215254903,0.06703765,0.02394202,10.00297451,-0.00852212,-0.02556635,0.00106526
1704712215256937,0.06703765,0.02873042,10.00297451,-0.00852212,-0.01917476,-0.00745685
1704712215259004,0.05746084,0.02873042,10.00297451,-0.01384844,-0.01384844,-0.00745685
1704712215260903,0.07182605,0.02873042,10.01255131,-0.01491370,-0.01384844,-0.00213053
1704712215262890,0.04788403,0.02394202,10.01733971,-0.01171791,-0.00639159,-0.00106526
1704712215264942,0.05267244,0.02873042,10.02212811,0.00000000,-0.00532632,-0.00532632
1704712215267012,0.05267244,0.02873042,10.01255131,0.00213053,-0.00213053,-0.00213053
1704712215268945,0.03830723,0.02873042,10.02691650,-0.00106526,0.00532632,0.00319579
1704712215270897,0.05746084,0.02873042,10.01733971,-0.00106526,0.00958738,-0.00426106
1704712215272922,0.03830723,0.01915361,10.02212811,-0.00426106,0.00213053,-0.00106526
1704712215274960,0.04309563,0.02873042,10.03170490,0.00000000,0.00000000,0.00000000
1704712215276957,0.04788403,0.02394202,10.01255131,0.00106526,0.00319579,-0.00106526
1704712215278881,0.03830723,0.01915361,10.03649330,-0.00426106,0.01171791,-0.00426106
1704712215280994,0.05267244,0.03351882,10.02691650,-0.01065264,0.01597897,-0.00639159
1704712215282939,0.04788403,0.01436521,10.01733971,-0.00319579,0.00000000,-0.00106526
1704712215284976,0.05267244,0.03351882,10.03170490,0.00639159,-0.00106526,-0.00106526
1704712215286943,0.05267244,0.02394202,10.02212811,0.00532632,0.00745685,0.00213053
1704712215288929,0.05267244,0.02873042,10.03170490,-0.00532632,0.00958738,0.00213053
1704712215290920,0.05746084,0.04788403,10.02691650,-0.01384844,0.00852212,0.00745685
1704712215292931,0.06224924,0.02394202,10.02691650,-0.00745685,-0.00106526,-0.00106526
1704712215294931,0.06224924,0.04309563,10.03170490,-0.00319579,0.00106526,-0.00319579
1704712215296940,0.05746084,0.03830723,10.02691650,-0.02130529,0.01278317,0.00106526
1704712215298961,0.07182605,0.02394202,10.02691650,-0.02024002,0.01278317,0.00106526
1704712215300928,0.06224924,0.04309563,10.02691650,-0.00213053,0.00426106,-0.00639159
1704712215302897,0.06703765,0.02394202,10.02691650,0.01065264,0.00852212,-0.00106526
1704712215304914,0.07182605,0.03351882,10.02212811,-0.00319579,0.00958738,0.00213053
1704712215306966,0.05267244,0.03830723,10.02691650,-0.00426106,0.00426106,-0.00745685
1704712215308992,0.07661445,0.02394202,10.02691650,0.00319579,0.00639159,-0.00426106
1704712215310906,0.06703765,0.03351882,10.01255131,0.02024002,0.00426106,-0.00213053
1704712215312913,0.06703765,0.03351882,10.02691650,0.00426106,-0.00213053,-0.00639159
1704712215314951,0.08140286,0.03351882,10.01255131,-0.00532632,-0.01065264,-0.00213053
1704712215316948,0.05746084,0.03830723,10.01733971,-0.00106526,0.00000000,0.00213053
1704712215318933,0.08140286,0.03830723,10.02212811,0.01171791,0.00426106,-0.00319579
1704712215320904,0.07661445,0.03830723,9.99339771,-0.00213053,-0.00426106,-0.01065264
1704712215322898,0.07182605,0.04788403,10.00776291,-0.00639159,-0.00745685,-0.00852212
1704712215324962,0.08619126,0.04309563,9.99339771,0.00639159,-0.00745685,-0.00319579
1704712215327010,0.06703765,0.04309563,9.98860931,0.00639159,-0.00213053,-0.00532632
1704712215329024,0.08619126,0.06224924,9.99818611,-0.00639159,-0.00213053,-0.00426106
1704712215330902,0.07182605,0.04788403,9.96945572,0.00319579,-0.00106526,-0.00745685
1704712215332950,0.07661445,0.06224924,9.97903252,0.01384844,0.00426106,-0.01065264
1704712215334934,0.08619126,0.06703765,9.96945572,0.00106526,0.00745685,-0.00106526
1704712215336934,0.07661445,0.05267244,9.95509052,-0.01278317,-0.00532632,0.00532632
1704712215338892,0.07661445,0.07182605,9.96466732,0.00000000,-0.01278317,0.00532632
1704712215340933,0.07182605,0.04788403,9.94072533,0.02130529,0.00319579,-0.00852212
1704712215342919,0.07182605,0.05746084,9.93114853,0.02237055,0.00958738,-0.00639159
1704712215344958,0.07182605,0.07182605,9.93114853,0.00213053,-0.00532632,-0.00639159
1704712215346918,0.06703765,0.04309563,9.92157173,0.00639159,-0.01171791,-0.00745685
1704712215348919,0.06224924,0.06224924,9.91678333,0.02237055,0.00000000,-0.01491370
1704712215350923,0.05746084,0.04788403,9.91678333,0.02024002,-0.00532632,-0.00852212
1704712215352921,0.06703765,0.04788403,9.89762974,0.00958738,-0.02237055,-0.01491370
1704712215354903,0.05267244,0.06224924,9.89762974,0.00958738,-0.02876214,-0.01917476
1704712215356886,0.06224924,0.03830723,9.90241814,0.01917476,-0.02130529,-0.01917476
1704712215358983,0.06703765,0.05267244,9.87847614,0.00958738,-0.02982740,-0.00852212
1704712215360902,0.05746084,0.05267244,9.88326454,0.00745685,-0.04367584,-0.00639159
1704712215362932,0.08140286,0.04788403,9.87847614,0.01384844,-0.03302320,-0.01065264
1704712215364896,0.06703765,0.05267244,9.85932255,0.01171791,-0.02769688,-0.00852212
1704712215366951,0.07661445,0.05267244,9.87847614,-0.00213053,-0.04048005,-0.00639159
1704712215368962,0.08619126,0.05267244,9.85453415,0.00106526,-0.05965481,0.00106526
1704712215370873,0.06703765,0.05267244,9.84974575,0.01810949,-0.04261058,-0.00319579
1704712215372995,0.09097967,0.05267244,9.85453415,0.01278317,-0.03302320,-0.00213053
1704712215374982,0.07182605,0.05267244,9.83538055,-0.00319579,-0.04474111,0.00426106
1704712215376943,0.07661445,0.05267244,9.84495735,0.00745685,-0.04687164,-0.00639159
1704712215378914,0.08619126,0.04788403,9.84016895,0.01065264,-0.03408846,-0.00639159
1704712215380929,0.06224924,0.04309563,9.82580376,0.00639159,-0.02982740,-0.00106526
1704712215382950,0.08140286,0.05746084,9.84495735,0.00745685,-0.03089267,0.00426106
1704712215384930,0.07182605,0.03351882,9.82101536,0.00639159,-0.02343582,-0.00639159
1704712215386916,0.06224924,0.04309563,9.82580376,-0.00319579,-0.02024002,-0.00639159
1704712215388927,0.06703765,0.04788403,9.83538055,-0.00319579,-0.02237055,0.00319579
1704712215390935,0.05267244,0.03351882,9.81622696,0.00639159,-0.02237055,0.00745685
1704712215392957,0.05746084,0.05267244,9.82101536,0.00639159,-0.01810949,0.00000000
1704712215394957,0.05267244,0.03351882,9.82101536,-0.00106526,-0.01065264,-0.00958738
1704712215396927,0.05746084,0.04788403,9.80665016,0.00639159,-0.00852212,-0.00106526
1704712215398926,0.05267244,0.05267244,9.81622696,0.02343582,-0.00745685,-0.00213053
1704712215400924,0.04788403,0.03351882,9.81143856,0.02876214,-0.00106526,0.00000000
1704712215402933,0.04788403,0.06224924,9.79707336,0.02556635,0.00319579,0.00106526
1704712215404887,0.03830723,0.04788403,9.81143856,0.03195793,0.00639159,0.00319579
1704712215406940,0.04788403,0.04788403,9.79707336,0.04048005,0.00532632,-0.00426106
1704712215408960,0.04309563,0.05746084,9.79228497,0.03515373,0.00319579,-0.00745685
1704712215410876,0.04309563,0.04309563,9.80665016,0.03728426,0.00106526,0.00106526
1704712215412903,0.04788403,0.05746084,9.79228497,0.04154531,0.00213053,0.00000000
1704712215414939,0.03830723,0.04788403,9.79707336,0.03941479,0.00639159,-0.00958738
1704712215417101,0.05746084,0.04788403,9.79707336,0.02982740,0.01065264,-0.01065264
1704712215418932,0.04309563,0.04788403,9.78749657,0.04154531,-0.00106526,0.00106526
1704712215420909,0.05267244,0.04309563,9.79707336,0.04580637,-0.00639159,0.00106526
1704712215422932,0.06224924,0.04788403,9.78749657,0.04048005,-0.00213053,0.00213053
1704712215424960,0.04788403,0.04788403,9.78749657,0.03834952,0.00213053,0.00426106
1704712215426954,0.06224924,0.05267244,9.80186176,0.04580637,0.00532632,0.00213053
1704712215428962,0.05746084,0.05267244,9.78270817,0.05645901,0.00319579,-0.00106526
1704712215430894,0.05746084,0.05746084,9.79707336,0.05539375,-0.00319579,0.00532632
1704712215432942,0.07182605,0.05746084,9.81143856,0.03834952,-0.00639159,0.00213053
1704712215434951,0.05746084,0.05267244,9.79707336,0.02769688,-0.00106526,0.00639159
1704712215436932,0.07182605,0.05746084,9.81143856,0.04154531,0.01171791,0.00000000
1704712215438925,0.06703765,0.04788403,9.80665016,0.03621899,0.00319579,0.00319579
1704712215440914,0.07182605,0.05746084,9.80665016,0.00852212,-0.00852212,-0.00639159
1704712215442948,0.07661445,0.05267244,9.83538055,-0.00106526,-0.01597897,-0.00958738
1704712215444929,0.06703765,0.04309563,9.82580376,0.00958738,-0.00958738,-0.01810949
1704712215446947,0.07661445,0.05746084,9.83059216,0.00745685,0.00000000,-0.01810949
1704712215448898,0.07182605,0.04309563,9.84495735,-0.00532632,-0.00426106,-0.01597897
1704712215450926,0.07182605,0.04788403,9.84495735,-0.00639159,-0.01384844,-0.01278317
1704712215452928,0.07182605,0.04788403,9.86411095,0.00000000,-0.00745685,-0.00852212
1704712215454924,0.07182605,0.03830723,9.86889935,0.00319579,-0.00639159,-0.00745685
1704712215456918,0.07661445,0.05746084,9.85932255,-0.00426106,-0.00213053,0.00319579
1704712215458953,0.07182605,0.03830723,9.87847614,-0.01171791,0.00319579,0.00639159
1704712215461031,0.07182605,0.04309563,9.88326454,-0.00958738,0.00213053,0.00106526
1704712215462975,0.07182605,0.03351882,9.89762974,-0.02769688,-0.01491370,0.00000000
1704712215464915,0.07182605,0.03351882,9.90241814,-0.03195793,-0.00958738,0.00319579
1704712215466992,0.07182605,0.04309563,9.89762974,-0.02556635,-0.00213053,-0.00106526
1704712215468955,0.07182605,0.02873042,9.90241814,-0.01917476,-0.00639159,0.00000000
1704712215470927,0.07182605,0.03830723,9.91199493,-0.03195793,-0.01065264,0.00000000
1704712215472925,0.07182605,0.03830723,9.91199493,-0.03515373,-0.01704423,0.00000000
1704712215474951,0.06703765,0.02873042,9.92157173,-0.01810949,-0.01278317,-0.00106526
1704712215476990,0.06703765,0.04309563,9.92636013,-0.01278317,-0.00852212,0.00106526
1704712215478935,0.06703765,0.03830723,9.92157173,-0.02982740,-0.00532632,-0.01065264
1704712215480879,0.06224924,0.03830723,9.93593693,-0.03941479,-0.00745685,-0.00106526
1704712215482931,0.05746084,0.04309563,9.93593693,-0.02663161,-0.00852212,0.00106526
1704712215484969,0.05746084,0.03830723,9.94072533,-0.01810949,-0.00426106,0.00426106
1704712215486999,0.05267244,0.04309563,9.95030212,-0.02556635,0.00106526,-0.00532632
1704712215488922,0.05267244,0.04309563,9.94551373,-0.02876214,0.00426106,0.00958738
1704712215490907,0.05267244,0.04309563,9.95509052,-0.02343582,0.00319579,0.00106526
1704712215492993,0.04788403,0.04788403,9.95987892,-0.02556635,-0.00106526,-0.00213053
1704712215494947,0.05267244,0.04788403,9.95509052,-0.03408846,-0.00213053,-0.00106526
1704712215496940,0.05267244,0.04309563,9.96466732,-0.03408846,-0.00639159,0.00745685
1704712215498921,0.05267244,0.05267244,9.95987892,-0.02982740,-0.00319579,-0.00426106
1704712215500923,0.06224924,0.04309563,9.95987892,-0.03302320,0.00426106,-0.00426106
1704712215502922,0.04788403,0.04788403,9.96945572,-0.03195793,-0.00106526,-0.00532632
1704712215504981,0.05267244,0.05746084,9.96466732,-0.02130529,-0.00958738,-0.00639159
1704712215506939,0.05746084,0.04309563,9.96466732,-0.01278317,0.00639159,0.00213053
1704712215508958,0.04788403,0.05267244,9.96466732,-0.01065264,0.01065264,0.00532632
1704712215510902,0.05746084,0.04788403,9.95987892,-0.00426106,0.00639159,0.00426106
1704712215512958,0.05267244,0.04309563,9.95987892,0.00106526,0.00532632,0.00639159
1704712215514946,0.04309563,0.05267244,9.95987892,0.01384844,0.00745685,0.00106526
1704712215516962,0.05267244,0.03351882,9.95509052,0.01491370,0.00745685,-0.00106526
1704712215518966,0.04309563,0.04309563,9.95509052,0.01171791,0.00745685,-0.00106526
1704712215520929,0.04788403,0.04309563,9.95509052,0.01491370,0.00745685,-0.00106526
1704712215522907,0.04788403,0.02873042,9.93593693,0.01171791,0.00532632,-0.00213053
1704712215524929,0.03830723,0.04309563,9.93593693,-0.00532632,0.00213053,0.00213053
1704712215526973,0.04788403,0.02873042,9.93114853,-0.01065264,0.00319579,0.00000000
1704712215528974,0.04788403,0.02873042,9.91678333,0.00106526,0.00213053,-0.00213053
1704712215530895,0.04309563,0.03351882,9.91678333,0.00000000,0.01065264,-0.00319579
1704712215532940,0.05746084,0.02394202,9.89762974,-0.00852212,0.01065264,-0.00213053
1704712215534969,0.04309563,0.03351882,9.89284134,-0.00106526,0.00213053,0.00319579
1704712215536975,0.05267244,0.03351882,9.89762974,0.01171791,-0.00319579,0.00639159
1704712215538928,0.05746084,0.02873042,9.87368774,0.01171791,0.00639159,-0.00106526
1704712215540916,0.04788403,0.03830723,9.88326454,0.00639159,0.00532632,0.00106526
1704712215543066,0.06703765,0.02873042,9.86889935,0.00958738,-0.00852212,0.00319579
1704712215544964,0.05746084,0.02873042,9.85932255,0.01704423,-0.00319579,0.01171791
1704712215546928,0.05746084,0.03830723,9.87368774,0.01704423,0.00213053,0.00639159
1704712215548938,0.06703765,0.02873042,9.84974575,0.01810949,-0.00106526,0.00958738
1704712215550930,0.05746084,0.03351882,9.85453415,0.00639159,0.00000000,0.01278317
1704712215552944,0.06703765,0.03830723,9.85453415,0.00426106,0.00852212,0.01171791
1704712215555057,0.06703765,0.02873042,9.84016895,0.00426106,0.01917476,0.01278317
1704712215556904,0.05746084,0.03830723,9.84974575,0.01810949,0.01810949,0.01491370
1704712215559001,0.06703765,0.03830723,9.84495735,0.02024002,0.01810949,0.01171791
1704712215560962,0.06224924,0.03351882,9.84016895,-0.00106526,0.02450108,0.00639159
1704712215562991,0.05746084,0.04788403,9.84974575,-0.01384844,0.02982740,0.00639159
1704712215564945,0.06224924,0.02873042,9.84974575,-0.00639159,0.03302320,0.00000000
1704712215566951,0.05267244,0.03351882,9.84495735,-0.01597897,0.03408846,-0.01171791
1704712215568989,0.05267244,0.03830723,9.84974575,-0.03941479,0.03089267,-0.00106526
1704712215570913,0.06224924,0.01915361,9.84974575,-0.04367584,0.03089267,0.00532632
1704712215572944,0.04788403,0.03351882,9.84495735,-0.02982740,0.02769688,0.00319579
1704712215574907,0.05267244,0.01915361,9.85932255,-0.02982740,0.03089267,-0.00213053
1704712215576954,0.05746084,0.01915361,9.84495735,-0.04474111,0.02982740,0.00000000
1704712215579071,0.04309563,0.03351882,9.84974575,-0.04793690,0.02982740,-0.00426106
1704712215580876,0.05746084,0.01436521,9.85932255,-0.04154531,0.02982740,-0.00106526
1704712215582937,0.05267244,0.01915361,9.83538055,-0.03621899,0.02982740,0.00000000
1704712215584981,0.04788403,0.01915361,9.85453415,-0.05326322,0.02769688,0.01171791
1704712215586970,0.06224924,0.00957681,9.84974575,-0.07030746,0.01810949,0.01065264
1704712215588960,0.04309563,0.01915361,9.83538055,-0.05752428,0.01597897,0.00106526
1704712215590904,0.05746084,0.01436521,9.85453415,-0.03834952,0.01810949,-0.00745685
1704712215592967,0.06224924,0.00957681,9.82580376,-0.04687164,0.00958738,-0.00958738
1704712215594984,0.05267244,0.01915361,9.84016895,-0.05539375,0.00213053,-0.00639159
1704712215596937,0.07182605,0.01915361,9.84974575,-0.04154531,0.00319579,-0.00319579
1704712215598927,0.06224924,0.01436521,9.82580376,-0.03728426,0.00745685,0.00106526
1704712215601049,0.07182605,0.02873042,9.84495735,-0.05539375,-0.00319579,0.00000000
1704712215602959,0.08140286,0.02394202,9.83059216,-0.05858954,-0.00639159,-0.00745685
1704712215604969,0.07182605,0.02394202,9.82580376,-0.04687164,0.00000000,-0.00532632
1704712215606923,0.08619126,0.03351882,9.84016895,-0.03728426,0.00106526,-0.00426106
1704712215608953,0.08140286,0.02394202,9.82101536,-0.05006743,-0.01384844,-0.00106526
1704712215610929,0.08140286,0.03830723,9.83059216,-0.05858954,-0.02663161,0.00213053
1704712215612947,0.08619126,0.03351882,9.83538055,-0.04580637,-0.02237055,0.00319579
1704712215614932,0.08619126,0.02394202,9.82101536,-0.04793690,-0.01704423,-0.00745685
1704712215616939,0.09097967,0.04309563,9.82580376,-0.06604639,-0.02982740,-0.01065264
1704712215618949,0.08619126,0.01915361,9.82580376,-0.06072007,-0.04048005,-0.00319579
1704712215620922,0.09097967,0.03351882,9.81622696,-0.04261058,-0.03621899,0.00745685
1704712215622905,0.08619126,0.03351882,9.82101536,-0.03941479,-0.02450108,-0.00639159
1704712215624969,0.09097967,0.01915361,9.82101536,-0.05432849,-0.02663161,-0.01384844
1704712215626971,0.09097967,0.04309563,9.81143856,-0.05219796,-0.02663161,-0.00426106
1704712215628949,0.08140286,0.02394202,9.82580376,-0.03408846,-0.03089267,0.00213053
1704712215630939,0.09097967,0.03351882,9.81143856,-0.02876214,-0.02876214,-0.00213053
1704712215632944,0.07661445,0.04309563,9.80665016,-0.03089267,-0.02130529,0.00852212
1704712215634987,0.08619126,0.02873042,9.82101536,-0.03195793,-0.01491370,0.01065264
1704712215636918,0.09097967,0.04788403,9.78749657,-0.02769688,-0.01065264,0.00000000
1704712215638952,0.07661445,0.03830723,9.79707336,-0.02024002,-0.01704423,0.00745685
1704712215641010,0.09097967,0.04309563,9.79707336,-0.02237055,-0.01917476,0.00532632
1704712215642960,0.07661445,0.04788403,9.77791977,-0.02982740,-0.00958738,0.00319579
1704712215644951,0.08140286,0.03351882,9.79707336,-0.02663161,0.00000000,0.00000000
1704712215646956,0.08619126,0.04788403,9.75876617,-0.02130529,-0.00106526,-0.00319579
1704712215649014,0.07182605,0.04309563,9.75397778,-0.01384844,-0.00106526,-0.00213053
1704712215650934,0.08619126,0.04309563,9.77313137,-0.02876214,0.00106526,0.00000000
1704712215652955,0.07182605,0.04309563,9.74440098,-0.03621899,0.00106526,0.00106526
1704712215654963,0.07182605,0.03830723,9.75397778,-0.03515373,0.00532632,-0.00852212
1704712215656965,0.07661445,0.04309563,9.73482418,-0.01597897,0.01384844,-0.00319579
1704712215659084,0.05746084,0.03351882,9.72045898,-0.01704423,0.00958738,0.00319579
1704712215660973,0.07661445,0.04309563,9.73482418,-0.02450108,-0.00532632,0.00106526
1704712215662978,0.06224924,0.02873042,9.71567059,-0.02769688,-0.00639159,-0.00639159
1704712215664936,0.06224924,0.03351882,9.70130539,-0.02556635,0.00852212,-0.00852212
1704712215666994,0.07182605,0.04309563,9.69172859,-0.02556635,0.00958738,-0.00745685
1704712215668948,0.06224924,0.02873042,9.68215179,-0.01384844,-0.00319579,-0.00532632
1704712215670932,0.07182605,0.04788403,9.67257500,-0.01065264,-0.00639159,-0.00639159
1704712215672943,0.05746084,0.03351882,9.66778660,-0.00745685,0.00426106,-0.00213053
1704712215674927,0.06224924,0.04309563,9.65342140,-0.00213053,0.00426106,-0.00106526
1704712215677004,0.06703765,0.05746084,9.63905621,-0.00852212,0.00319579,-0.00106526
1704712215678973,0.05746084,0.03830723,9.64384460,-0.00958738,0.00213053,-0.00639159
1704712215680897,0.06703765,0.05746084,9.62947941,-0.00745685,0.00213053,-0.01384844
1704712215682933,0.05746084,0.04309563,9.62947941,-0.02130529,-0.00852212,-0.00319579
1704712215684951,0.06224924,0.04788403,9.63426781,-0.02237055,0.00000000,-0.00319579
1704712215686883,0.06224924,0.05746084,9.61511421,-0.01278317,0.00213053,-0.00639159
1704712215688958,0.05267244,0.03351882,9.62469101,-0.02556635,-0.01491370,-0.00639159
1704712215690906,0.06224924,0.04788403,9.61511421,-0.04154531,-0.02237055,0.00319579
1704712215693167,0.05267244,0.03351882,9.61511421,-0.03728426,-0.02237055,-0.00745685
1704712215694964,0.05746084,0.03351882,9.62469101,-0.01810949,-0.02450108,-0.00958738
1704712215696949,0.05746084,0.04309563,9.60553741,-0.02556635,-0.02450108,-0.01065264
1704712215698950,0.05746084,0.01915361,9.61511421,-0.04261058,-0.03621899,-0.00319579
1704712215700890,0.06224924,0.03830723,9.61990261,-0.04900216,-0.03621899,-0.00213053
1704712215702943,0.05746084,0.02394202,9.61511421,-0.03621899,-0.03621899,-0.00319579
1704712215704952,0.06703765,0.02394202,9.62947941,-0.03728426,-0.04154531,-0.00106526
1704712215706919,0.06703765,0.03351882,9.62469101,-0.05006743,-0.05006743,-0.00319579
1704712215708995,0.07182605,0.01915361,9.62469101,-0.05326322,-0.04154531,-0.00745685
1704712215710954,0.08140286,0.02873042,9.63905621,-0.02769688,-0.03834952,-0.00745685
1704712215712948,0.07182605,0.02873042,9.63905621,-0.02663161,-0.04367584,-0.00532632
1704712215714972,0.08619126,0.03351882,9.64384460,-0.02876214,-0.04900216,-0.00319579
1704712215716933,0.07661445,0.03830723,9.64863300,-0.02663161,-0.04474111,-0.00852212
1704712215718962,0.07661445,0.03351882,9.64863300,-0.02663161,-0.03408846,0.00106526
1704712215720930,0.08619126,0.04309563,9.65342140,-0.03515373,-0.03195793,0.00852212
1704712215722924,0.06703765,0.03351882,9.66778660,-0.03302320,-0.04580637,0.01065264
1704712215724926,0.07661445,0.03351882,9.66778660,-0.02556635,-0.04367584,0.00000000
1704712215726951,0.06703765,0.03351882,9.67257500,-0.02982740,-0.02024002,0.00106526
1704712215728970,0.05746084,0.03351882,9.68215179,-0.04154531,-0.00958738,0.00213053
1704712215730920,0.07661445,0.03830723,9.67736340,-0.04580637,-0.01810949,0.00532632
1704712215732909,0.05267244,0.02394202,9.69172859,-0.04793690,-0.01491370,0.00745685
1704712215734972,0.05746084,0.03351882,9.70130539,-0.05006743,-0.00745685,0.00852212
1704712215737107,0.05267244,0.02394202,9.70130539,-0.06072007,-0.00958738,0.00639159
1704712215738962,0.04309563,0.02394202,9.71567059,-0.05219796,-0.00213053,0.00319579
1704712215740896,0.05267244,0.03351882,9.71088219,-0.04048005,0.00319579,-0.00426106
1704712215742937,0.03830723,0.01436521,9.71567059,-0.04048005,0.00532632,-0.00319579
1704712215745003,0.04309563,0.03351882,9.73482418,-0.04261058,0.00532632,0.00745685
1704712215746959,0.04309563,0.02394202,9.73003578,-0.04154531,0.00639159,0.00426106
1704712215748918,0.02873042,0.01915361,9.73961258,-0.03195793,0.00958738,-0.00639159
1704712215750961,0.04309563,0.04309563,9.73961258,-0.03408846,0.01171791,-0.00852212
1704712215752964,0.03830723,0.01915361,9.73961258,-0.04154531,0.00426106,-0.00426106
1704712215754932,0.03830723,0.03830723,9.75397778,-0.03621899,-0.00213053,-0.00639159
1704712215756906,0.03830723,0.03830723,9.74918938,-0.02556635,0.00532632,-0.00745685
1704712215758928,0.03830723,0.02873042,9.74918938,-0.01917476,0.01384844,-0.00532632
1704712215760937,0.04309563,0.05267244,9.75876617,-0.02982740,0.01704423,-0.00852212
1704712215762953,0.03830723,0.03351882,9.75876617,-0.03621899,0.01597897,-0.00319579
1704712215764934,0.04309563,0.04309563,9.75876617,-0.01810949,0.01597897,0.00426106
1704712215766948,0.03351882,0.05267244,9.77313137,-0.00213053,0.02237055,0.00106526
1704712215768952,0.03830723,0.04309563,9.76834297,-0.01491370,0.03408846,-0.00319579
1704712215770932,0.03351882,0.06224924,9.76834297,-0.02982740,0.04580637,-0.00426106
1704712215773028,0.02873042,0.05267244,9.78270817,-0.01704423,0.03834952,-0.00106526
1704712215774898,0.03351882,0.05746084,9.77313137,-0.00532632,0.03195793,0.00426106
1704712215776978,0.01436521,0.06703765,9.78270817,-0.00745685,0.03302320,0.00852212
1704712215778944,0.02394202,0.06224924,9.78749657,-0.00852212,0.04048005,0.00639159
1704712215780870,0.02873042,0.06703765,9.77313137,-0.00852212,0.04793690,0.01171791
1704712215782938,0.01436521,0.06703765,9.77791977,-0.00106526,0.04580637,0.01065264
1704712215784975,0.03351882,0.06703765,9.78270817,-0.00639159,0.03728426,0.00106526
1704712215786964,0.02394202,0.07182605,9.77791977,-0.00852212,0.03302320,0.00106526
1704712215788917,0.02394202,0.07661445,9.78749657,-0.00426106,0.04793690,0.00000000
1704712215790913,0.03351882,0.07661445,9.78270817,0.01171791,0.04900216,-0.00213053
1704712215792986,0.02873042,0.07182605,9.76834297,0.00532632,0.04367584,-0.00319579
1704712215794952,0.04788403,0.08619126,9.78270817,-0.00958738,0.02982740,-0.00213053
1704712215796950,0.04309563,0.06703765,9.76834297,-0.00426106,0.02769688,-0.00958738
1704712215798938,0.03830723,0.08140286,9.77791977,0.00319579,0.03195793,-0.01917476
1704712215800918,0.06224924,0.07182605,9.77313137,-0.00213053,0.02982740,-0.01491370
1704712215802978,0.05746084,0.06224924,9.76355457,-0.00532632,0.02450108,-0.00745685
1704712215804950,0.06224924,0.08140286,9.77791977,-0.00532632,0.00958738,-0.00958738
1704712215806910,0.07182605,0.06703765,9.77313137,0.01065264,0.00532632,-0.00106526
1704712215808987,0.06703765,0.05746084,9.76355457,0.01597897,0.00532632,0.00213053
1704712215810951,0.07661445,0.06703765,9.77313137,0.00106526,0.00852212,0.00426106
1704712215812925,0.08140286,0.05267244,9.76834297,0.00319579,0.00958738,0.00000000
1704712215814961,0.07661445,0.06224924,9.75876617,0.01491370,-0.00106526,0.00000000
1704712215816938,0.08140286,0.06703765,9.77313137,0.01917476,-0.01491370,-0.00213053
1704712215819051,0.08619126,0.04788403,9.76355457,0.00639159,-0.01704423,0.00213053
1704712215820945,0.07661445,0.06224924,9.77791977,0.01810949,-0.00532632,0.00745685
1704712215822946,0.08140286,0.04788403,9.77791977,0.01597897,-0.01278317,-0.00213053
1704712215824928,0.08619126,0.04788403,9.75397778,-0.00639159,-0.03089267,-0.00213053
1704712215826938,0.08619126,0.05267244,9.77313137,-0.00852212,-0.04261058,0.00000000
1704712215828986,0.09097967,0.04309563,9.76834297,0.00426106,-0.04048005,0.00106526
1704712215830875,0.08140286,0.05267244,9.75876617,0.00639159,-0.03408846,-0.01171791
1704712215832963,0.08619126,0.05267244,9.76834297,0.00213053,-0.03621899,-0.01810949
1704712215834982,0.09576806,0.04309563,9.75397778,0.00639159,-0.04048005,-0.00852212
1704712215836968,0.08619126,0.05267244,9.76355457,-0.00213053,-0.04900216,0.00319579
1704712215838965,0.09097967,0.04788403,9.76834297,-0.00532632,-0.04580637,-0.00213053
1704712215841021,0.09097967,0.04309563,9.74918938,-0.00213053,-0.04154531,-0.00213053
1704712215842985,0.08140286,0.05267244,9.75876617,0.00426106,-0.03515373,0.00639159
1704712215844968,0.08140286,0.04309563,9.75397778,0.00106526,-0.03302320,0.00106526
1704712215846979,0.07661445,0.04309563,9.74918938,0.00639159,-0.03515373,-0.00745685
1704712215848961,0.07182605,0.05267244,9.75397778,-0.00106526,-0.04793690,0.00213053
1704712215850903,0.07661445,0.03830723,9.74918938,-0.00106526,-0.04900216,0.00532632
1704712215852958,0.06703765,0.04309563,9.73961258,-0.00319579,-0.03302320,0.00000000
1704712215854959,0.06703765,0.04788403,9.74440098,0.00319579,-0.02982740,0.00745685
1704712215856912,0.07182605,0.03351882,9.73003578,0.00000000,-0.04261058,0.00532632
1704712215858943,0.06224924,0.04309563,9.71567059,-0.00319579,-0.04580637,-0.00213053
1704712215860974,0.06224924,0.03830723,9.72524738,-0.00106526,-0.03515373,0.00426106
1704712215862933,0.06224924,0.03830723,9.70609379,0.00745685,-0.01704423,-0.00106526
1704712215864972,0.05267244,0.04788403,9.70130539,0.00745685,-0.02769688,-0.00532632
1704712215866949,0.05746084,0.04309563,9.70130539,0.01065264,-0.03621899,-0.00426106
1704712215868911,0.04788403,0.05267244,9.66778660,0.01384844,-0.03089267,0.00745685
1704712215870979,0.04309563,0.04788403,9.68694019,0.02343582,-0.00958738,0.00319579
1704712215873069,0.04309563,0.04788403,9.67736340,0.01704423,-0.00639159,0.00532632
1704712215875049,0.03351882,0.05746084,9.64863300,0.01065264,-0.01917476,0.00319579
1704712215877006,0.03830723,0.05267244,9.65820980,0.01704423,-0.01065264,0.00000000
1704712215878977,0.03830723,0.05746084,9.63905621,0.02130529,-0.00532632,0.00213053
1704712215881046,0.02873042,0.05746084,9.63905621,0.02130529,0.00000000,0.00852212
1704712215882971,0.03351882,0.05746084,9.62947941,0.01704423,-0.00426106,0.00426106
1704712215884967,0.02873042,0.06224924,9.61032581,0.02343582,0.00106526,-0.00213053
1704712215886991,0.02873042,0.06224924,9.61990261,0.02556635,0.00958738,-0.00213053
1704712215888935,0.03351882,0.06224924,9.61511421,0.02024002,0.00958738,0.00000000
1704712215890913,0.02873042,0.06224924,9.59596062,0.00000000,0.00639159,0.00639159
1704712215892920,0.03351882,0.06224924,9.60553741,-0.00213053,0.01065264,0.00958738
1704712215894962,0.02873042,0.06224924,9.58638382,0.02024002,0.02982740,0.00213053
1704712215896986,0.02873042,0.06224924,9.57201862,0.02876214,0.03515373,-0.00426106
1704712215899085,0.03351882,0.05746084,9.57201862,0.01278317,0.02237055,-0.00639159
1704712215900894,0.02873042,0.05267244,9.56244183,0.00213053,0.01278317,-0.00639159
1704712215903039,0.03351882,0.05267244,9.55286503,0.00745685,0.02982740,-0.01065264
1704712215904981,0.02873042,0.05267244,9.54807663,0.02024002,0.04367584,-0.00852212
1704712215906939,0.03351882,0.05267244,9.53849983,0.01597897,0.03195793,-0.01278317
1704712215908941,0.03830723,0.04788403,9.53849983,0.00213053,0.03302320,-0.00745685
1704712215910905,0.03351882,0.04309563,9.54328823,0.00106526,0.03941479,-0.01065264
1704712215912986,0.03830723,0.05267244,9.53371143,0.00426106,0.04580637,-0.01491370
1704712215914958,0.03830723,0.04309563,9.52892303,-0.01278317,0.04154531,-0.00106526
1704712215916939,0.04309563,0.03830723,9.53849983,-0.03515373,0.03728426,-0.00213053
1704712215919091,0.04309563,0.03830723,9.52413464,-0.03089267,0.04154531,-0.01384844
