timestamp,accel_x,accel_y,accel_z,gyro_x,gyro_y,gyro_z
1691763263558495,-0.00957681,-0.11492168,9.82101536,0.00000000,0.00106526,0.00852212
1691763263560464,-0.05746084,-0.17238252,9.84016895,-0.01384844,0.00319579,-0.00745685
1691763263562449,-0.06703765,0.00478840,9.84974575,0.00000000,0.00106526,-0.01810949
1691763263564426,-0.03830723,0.20111294,9.84016895,0.02237055,0.00106526,-0.02237055
1691763263566425,-0.03351882,0.05746084,9.82101536,0.02876214,0.00106526,-0.01278317
1691763263568435,-0.01436521,-0.16759412,9.77791977,0.01065264,0.00532632,0.00532632
1691763263570458,0.00957681,-0.18195933,9.77313137,-0.00958738,0.00745685,0.01278317
1691763263572426,-0.01436521,-0.03830723,9.82101536,-0.00426106,0.00852212,0.00958738
1691763263574502,-0.04309563,0.14365210,9.86411095,0.00852212,0.00319579,-0.00319579
1691763263576434,-0.02394202,0.16280572,9.84016895,0.01171791,0.00000000,-0.01597897
1691763263578432,-0.02394202,-0.07661445,9.80186176,0.00213053,0.00213053,-0.02556635
1691763263580446,-0.01915361,-0.21068975,9.79707336,-0.01810949,0.00319579,-0.01704423
1691763263582451,-0.01915361,-0.08140286,9.82580376,-0.02130529,0.00532632,-0.00106526
1691763263584467,-0.03830723,0.15801731,9.87368774,-0.00745685,0.00639159,0.01810949
1691763263586407,-0.03351882,0.16280572,9.88326454,0.00958738,0.00106526,0.01810949
1691763263588420,-0.02873042,-0.04788403,9.84974575,-0.00319579,0.00000000,0.00852212
1691763263590420,-0.06224924,-0.15801731,9.80665016,-0.01704423,-0.00213053,-0.01384844
1691763263592435,-0.02873042,-0.06224924,9.82101536,-0.01810949,0.00213053,-0.02450108
1691763263594521,-0.02394202,0.10534488,9.84016895,0.00000000,0.00426106,-0.02237055
1691763263596402,-0.02873042,0.18674773,9.83059216,0.01278317,0.00106526,-0.00213053
1691763263598427,-0.03351882,-0.05746084,9.80186176,0.00213053,0.00319579,0.00958738
1691763263600472,-0.01436521,-0.23942018,9.79228497,-0.01384844,0.00639159,0.02024002
1691763263602455,-0.01915361,-0.15801731,9.81622696,-0.01491370,0.00426106,0.01278317
1691763263604433,-0.04309563,0.06224924,9.85453415,0.00000000,-0.00213053,-0.00213053
1691763263606406,-0.06224924,0.17717093,9.85453415,0.02024002,-0.00319579,-0.01917476
1691763263608432,-0.06224924,0.00000000,9.80186176,0.01065264,-0.00532632,-0.02556635
1691763263610450,-0.01915361,-0.19153613,9.77313137,-0.00745685,0.00319579,-0.02237055
1691763263612429,0.00000000,-0.18674773,9.79707336,-0.01917476,0.00958738,-0.00319579
1691763263614435,-0.00957681,0.06224924,9.83059216,-0.01065264,0.00852212,0.01171791
1691763263616460,-0.02873042,0.23463176,9.86889935,0.01278317,0.00000000,0.01597897
1691763263618426,-0.08619126,0.07661445,9.85932255,0.01171791,-0.00213053,0.00426106
1691763263620490,-0.05746084,-0.12928689,9.81143856,-0.00319579,0.00000000,-0.01384844
1691763263622434,0.00478840,-0.12928689,9.81622696,-0.01278317,0.00745685,-0.02024002
1691763263624458,-0.03830723,0.00000000,9.86411095,-0.00426106,0.00745685,-0.01384844
1691763263626459,-0.05746084,0.19153613,9.87847614,0.00852212,0.00426106,0.00106526
1691763263628433,-0.04309563,0.03351882,9.86411095,0.00639159,0.00426106,0.01597897
1691763263630442,0.00000000,-0.19153613,9.84495735,-0.01278317,0.00958738,0.01810949
1691763263632448,0.03830723,-0.24899697,9.83059216,-0.02237055,0.00745685,0.00639159
1691763263634501,-0.04309563,-0.04788403,9.84495735,-0.01065264,0.00213053,-0.00958738
1691763263636422,-0.13407530,0.18674773,9.88326454,0.00532632,-0.00213053,-0.02343582
1691763263638418,-0.04788403,0.08140286,9.84974575,0.00852212,-0.00106526,-0.02450108
1691763263640446,0.02394202,-0.17717093,9.78749657,-0.00106526,0.00745685,-0.01171791
1691763263642499,-0.02394202,-0.22505496,9.81143856,-0.02130529,0.00852212,0.00426106
1691763263644474,-0.04788403,-0.12928689,9.84495735,-0.01171791,0.00426106,0.01917476
1691763263646426,-0.05746084,0.11971009,9.86889935,0.00213053,0.00213053,0.01278317
1691763263648422,-0.03830723,0.18674773,9.86411095,0.01278317,-0.00319579,-0.00106526
1691763263650445,-0.05746084,-0.06703765,9.80665016,0.00532632,-0.00213053,-0.01917476
1691763263652487,-0.05746084,-0.27772740,9.79228497,-0.00532632,0.00319579,-0.02876214
1691763263654459,-0.04309563,-0.08619126,9.79707336,-0.00852212,0.00106526,-0.02130529
1691763263656396,-0.03830723,0.13886370,9.84974575,0.00958738,0.00426106,-0.00106526
1691763263658472,-0.05746084,0.07661445,9.88326454,0.02024002,0.00426106,0.01917476
1691763263660459,-0.04309563,-0.05267244,9.81622696,0.00532632,-0.00213053,0.02663161
1691763263662438,-0.05267244,-0.25378537,9.83059216,-0.01597897,0.00319579,0.01491370
1691763263664446,-0.04309563,-0.17238252,9.85932255,-0.01278317,0.00532632,-0.00213053
1691763263666411,-0.01436521,0.11971009,9.84974575,0.00958738,-0.00106526,-0.02237055
1691763263668488,-0.05746084,0.15322891,9.85453415,0.02663161,0.00319579,-0.02556635
1691763263670484,-0.05267244,-0.08140286,9.80665016,0.01917476,0.00639159,-0.01810949
1691763263672475,0.01436521,-0.22984336,9.77791977,-0.00745685,0.00745685,-0.00532632
1691763263674482,0.00000000,-0.18674773,9.82101536,-0.01491370,0.01278317,0.01278317
1691763263676434,-0.03830723,0.05267244,9.86411095,-0.00532632,0.00639159,0.01384844
1691763263678475,-0.08619126,0.15801731,9.88805294,0.01597897,0.00106526,0.00426106
1691763263680550,-0.08140286,0.06703765,9.84495735,0.01491370,0.00213053,-0.01065264
1691763263682466,-0.04788403,-0.17717093,9.82101536,0.00106526,0.00213053,-0.01917476
1691763263684497,-0.03830723,-0.15801731,9.81143856,-0.01491370,0.00852212,-0.01597897
1691763263686406,-0.04309563,0.08140286,9.84016895,0.00213053,0.00745685,0.00106526
1691763263688431,-0.04309563,0.12449849,9.87368774,0.01384844,0.00319579,0.01704423
1691763263690414,-0.10534488,0.06224924,9.85453415,0.00639159,0.00000000,0.01491370
1691763263692435,-0.03351882,-0.08140286,9.79707336,-0.00639159,0.00319579,0.00532632
1691763263694455,-0.02394202,-0.19153613,9.78749657,-0.01278317,0.00639159,-0.01171791
1691763263696422,-0.08140286,-0.00957681,9.82580376,-0.00426106,0.00213053,-0.02343582
1691763263698424,-0.09097967,0.21068975,9.83538055,0.00213053,0.00000000,-0.00745685
1691763263700467,-0.04788403,0.06224924,9.80186176,-0.01171791,0.00639159,0.01810949
1691763263702498,0.04309563,-0.11492168,9.85932255,-0.08309063,0.00958738,0.08415589
1691763263704450,-0.09097967,-0.26815060,9.96466732,-0.10865697,0.00213053,0.13209279
1691763263706401,-0.02873042,-0.06224924,10.12747288,-0.05326322,-0.01065264,0.07350325
1691763263708584,-0.01915361,0.14365210,10.17056847,0.00639159,-0.01278317,-0.01597897
1691763263710462,0.02394202,-0.00478840,9.99818611,0.02876214,0.01491370,0.00852212
1691763263712425,-0.04788403,-0.18195933,9.95509052,0.05326322,0.02237055,0.01917476
1691763263714520,0.00478840,-0.28730419,9.94072533,0.02343582,0.02130529,-0.01491370
1691763263716400,0.11971009,-0.03830723,9.85453415,0.01065264,0.03515373,0.06924219
1691763263718504,0.11492168,0.07661445,9.77313137,0.02130529,0.04048005,0.11185277
1691763263720437,0.17717093,0.12928689,9.80186176,0.02876214,0.07882957,0.19387813
1691763263722436,0.27293900,0.13886370,9.93114853,0.03408846,0.13102752,0.31425300
1691763263724451,0.27772740,0.04309563,9.98382092,-0.02130529,0.16085494,0.35792884
1691763263726426,0.42616791,-0.23463176,10.14183807,-0.05113269,0.19707392,0.39947417
1691763263728450,0.63206923,-0.22984336,10.38125896,-0.09161274,0.24927188,0.41758364
1691763263730424,0.57939678,-0.01436521,10.31900978,-0.08522116,0.30786142,0.47936898
1691763263732429,0.42137951,0.00478840,10.26154804,-0.09374327,0.38242993,0.48469532
1691763263734456,0.42137951,-0.09097967,10.49139214,-0.12996227,0.47084689,0.48469532
1691763263736521,0.28730419,-0.11492168,10.50096893,-0.17150757,0.57098174,0.47936898
1691763263738426,0.12449849,0.10055647,10.28070164,-0.18748654,0.68070400,0.47404268
1691763263740432,-0.01436521,-0.21547815,10.34774017,-0.21411815,0.76592511,0.44954160
1691763263742432,-0.12928689,-0.26336220,10.36689377,-0.20240024,0.82984102,0.42930156
1691763263744483,-0.12928689,0.00957681,10.33816338,-0.20559603,0.83942837,0.43036684
1691763263746430,-0.07182605,-0.34476504,10.57758331,-0.17150757,0.82984102,0.43569314
1691763263748437,-0.17717093,-0.22505496,10.56321812,-0.16298546,0.85008103,0.44208473
1691763263750455,0.24899697,-0.04309563,10.63983250,-0.14807175,0.83516729,0.46232477
1691763263752430,0.06224924,-0.16280572,11.07557678,-0.13635385,0.80853570,0.48469532
1691763263754430,-0.21547815,0.00000000,11.12346077,-0.10759171,0.79042619,0.50706589
1691763263756402,0.33518824,-0.01915361,11.42991924,-0.12250541,0.77444726,0.49215218
1691763263758510,-0.13407530,0.00478840,11.48738003,-0.11824435,0.73077142,0.48363006
1691763263760485,0.27772740,-0.19632454,11.93270111,-0.13102752,0.72118402,0.47297740
1691763263762496,-0.01915361,-0.17717093,12.06677628,-0.13528858,0.70520508,0.46232477
1691763263764428,0.26815060,-0.16759412,11.93270111,-0.14913702,0.66898608,0.47936898
1691763263766432,0.24899697,-0.11971009,12.36365795,-0.15552860,0.65087658,0.47510794
1691763263768469,-0.18195933,-0.41180268,12.25831223,-0.17257284,0.64768076,0.45060685
1691763263770424,0.59855044,-0.32082301,12.34929276,-0.19174761,0.63170183,0.44741106
1691763263772429,-0.12928689,-0.28251579,12.65096188,-0.19707392,0.62424499,0.43249735
1691763263774422,0.35434186,-0.46447513,12.43548393,-0.20453078,0.60080916,0.40906155
1691763263776411,0.08140286,-0.27293900,12.81376743,-0.21305288,0.56459016,0.40373522
1691763263778428,0.05746084,-0.29209262,12.64138508,-0.20879182,0.54541540,0.38349521
1691763263780490,0.59376204,-0.21068975,12.78503704,-0.22477080,0.50919640,0.36005938
1691763263782477,0.18674773,-0.22984336,12.82813263,-0.20985709,0.46658581,0.36538571
1691763263784429,0.64643449,-0.17717093,12.87601662,-0.20026971,0.45273739,0.35686359
1691763263786468,-0.04309563,-0.11013328,13.03882217,-0.20985709,0.41864893,0.32703617
1691763263788372,0.34955344,-0.09097967,13.04361057,-0.22264026,0.41545314,0.32170987
1691763263790433,0.28251579,-0.34476504,13.17289734,-0.23435818,0.39734364,0.32490566
1691763263792469,0.04788403,-0.02394202,13.14895535,-0.22796659,0.36751622,0.32277513
1691763263794467,0.55545479,-0.24420857,13.43626022,-0.21731395,0.32597092,0.29294771
1691763263796431,-0.13407530,-0.26336220,13.40752983,-0.24074976,0.31105721,0.27483824
1691763263798490,0.56024319,-0.03351882,13.46020222,-0.26312032,0.29720879,0.25353295
1691763263800433,0.02394202,-0.47405192,13.35485744,-0.26525083,0.27483824,0.23861924
1691763263802508,0.42137951,0.00478840,13.48414421,-0.27696875,0.22903186,0.22690132
1691763263804446,0.13886370,-0.26815060,13.56075859,-0.28975192,0.18535601,0.21944447
1691763263806464,0.22505496,-0.13886370,13.36922264,-0.27803403,0.15872440,0.19920444
1691763263808431,0.39743748,0.01436521,13.49372101,-0.23861924,0.11611383,0.19920444
1691763263810463,0.07661445,-0.35434186,13.35006905,-0.19068234,0.08735169,0.19174761
1691763263812534,0.52193600,0.33039984,13.49372101,-0.19281286,0.04793690,0.20559603
1691763263814439,0.00000000,-0.35434186,13.30218506,-0.16405073,-0.00213053,0.21198763
1691763263816413,0.40701428,0.27772740,13.25430107,-0.14913702,-0.03515373,0.20559603
1691763263818528,0.15801731,0.05746084,13.23035812,-0.15339808,-0.08735169,0.21411815
1691763263820637,0.39264908,0.34476504,13.04839897,-0.12676647,-0.13102752,0.19068234
1691763263822514,0.28251579,0.38307226,12.97178459,-0.12570120,-0.15659387,0.18002969
1691763263824547,0.19632454,-0.24420857,12.77067184,-0.12676647,-0.18216021,0.17257284
1691763263826454,0.40701428,0.43574470,12.70363426,-0.11291803,-0.19068234,0.16085494
1691763263828529,-0.06703765,-0.17238252,12.41633034,-0.08096009,-0.18216021,0.14594123
1691763263830453,0.32561144,0.08619126,12.17212105,-0.08522116,-0.19174761,0.12250541
1691763263832431,0.05746084,0.22984336,12.10508347,-0.08309063,-0.20879182,0.12250541
1691763263834437,0.13886370,-0.18195933,11.91833591,-0.06072007,-0.21518342,0.13422331
1691763263836446,0.17717093,0.39743748,11.76989555,-0.03089267,-0.24074976,0.12676647
1691763263838472,0.06224924,-0.05267244,11.62624359,-0.00532632,-0.27909929,0.12037488
1691763263840517,0.29688102,0.12449849,11.50653362,0.00852212,-0.30360037,0.12676647
1691763263842377,-0.08619126,0.07182605,11.48259163,0.03089267,-0.32916671,0.09800433
1691763263844496,0.37349546,-0.10055647,11.31499767,0.01597897,-0.39095205,0.09693906
1691763263846504,0.13407530,-0.01436521,11.24317074,0.00958738,-0.41651839,0.09800433
1691763263848484,-0.01436521,-0.27772740,11.15219116,0.01810949,-0.43675843,0.08628642
1691763263850446,0.42137951,0.03830723,11.00375080,0.03302320,-0.48256478,0.07882957
1691763263852477,-0.03351882,-0.14365210,11.01332760,0.03089267,-0.51771849,0.08096009
1691763263854497,0.37349546,0.04788403,10.81700325,0.02130529,-0.52304482,0.07776430
1691763263856460,0.21068975,0.02873042,10.65419769,0.04048005,-0.52837116,0.08202536
1691763263858435,0.11971009,0.01436521,10.59194851,0.05752428,-0.53156698,0.09267800
1691763263860518,0.29209262,0.16280572,10.38604736,0.07669904,-0.53263223,0.08735169
1691763263862501,-0.09097967,-0.22984336,10.41956615,0.10226539,-0.52730590,0.08948221
1691763263864432,0.16759412,0.29209262,10.23760605,0.12463594,-0.50919640,0.08096009
1691763263866421,-0.10534488,-0.15801731,10.10831928,0.17576863,-0.44847631,0.07137272
1691763263868570,-0.16759412,-0.03830723,10.04607010,0.17896442,-0.40906155,0.07776430
1691763263870569,-0.07661445,0.03830723,9.80665016,0.20346551,-0.36432043,0.05326322
1691763263872484,-0.16759412,-0.25378537,9.89762974,0.22477080,-0.33023196,0.06178534
1691763263874552,-0.00478840,0.22505496,9.75876617,0.24820662,-0.30892667,0.06072007
1691763263876416,-0.32561144,-0.20111294,9.71567059,0.25885925,-0.28868666,0.07669904
1691763263878510,-0.08619126,-0.04309563,9.74440098,0.22370553,-0.29401299,0.07137272
1691763263880461,0.05267244,0.00957681,9.61990261,0.21837921,-0.31105721,0.05965481
1691763263882601,0.09097967,-0.20590134,9.68215179,0.19174761,-0.32384038,0.06285060
1691763263884444,-0.22026655,-0.06703765,9.71567059,0.15659387,-0.36005938,0.04048005
1691763263886435,0.11492168,-0.14365210,9.60553741,0.15978967,-0.38882151,0.02663161
1691763263888474,0.10534488,-0.21068975,9.72524738,0.11930962,-0.42610577,0.01171791
1691763263890436,-0.17238252,-0.33039984,9.73482418,0.13741912,-0.45273739,0.00532632
1691763263892431,0.54587799,-0.18674773,9.70130539,0.12037488,-0.49002165,0.02024002
1691763263894627,0.08619126,-0.39743748,9.73961258,0.12250541,-0.51558799,0.01278317
1691763263896442,0.19153613,-0.29209262,9.62469101,0.12463594,-0.53902382,0.01065264
1691763263898501,0.53630120,-0.06703765,9.73003578,0.14381070,-0.54967648,0.02769688
1691763263900442,-0.02394202,-0.39743748,9.73482418,0.15765914,-0.56672066,0.04154531
1691763263902449,0.45968673,0.02873042,9.64863300,0.15233281,-0.57098174,0.03515373
1691763263904680,0.13407530,-0.12928689,9.68694019,0.19600865,-0.55287224,0.02876214
1691763263906450,0.20590134,0.09576806,9.46667385,0.19387813,-0.51878381,0.01171791
1691763263908441,0.24899697,0.21547815,9.45709705,0.20240024,-0.49641323,-0.00106526
1691763263910474,-0.17717093,-0.27772740,9.52413464,0.20559603,-0.45699844,-0.00319579
1691763263912648,-0.10534488,0.09576806,9.34217548,0.20346551,-0.41651839,-0.02130529
1691763263914456,-0.04788403,-0.05267244,9.39963627,0.20985709,-0.37816888,-0.02237055
1691763263916499,-0.30166942,-0.25857377,9.41400146,0.19920444,-0.35260254,-0.02343582
1691763263918496,-0.16280572,0.09097967,9.29907894,0.19174761,-0.32916671,-0.01597897
1691763263920481,-0.03351882,-0.09097967,9.35175228,0.18748654,-0.31105721,-0.01491370
1691763263922424,-0.20590134,0.01915361,9.39005947,0.19281286,-0.31531829,-0.01171791
1691763263924477,0.07661445,-0.17717093,9.37090588,0.18961707,-0.30573088,-0.01491370
1691763263926499,0.12928689,-0.19632454,9.39963627,0.19174761,-0.31212249,-0.02982740
1691763263928482,-0.14365210,-0.09576806,9.41878986,0.20240024,-0.32490566,-0.02876214
1691763263930444,0.30166942,0.05267244,9.33738708,0.22903186,-0.35153726,-0.03834952
1691763263932429,0.06703765,0.10534488,9.48582745,0.28975192,-0.37390780,-0.07776430
1691763263934456,-0.06224924,0.20111294,9.41400146,0.43143210,-0.43675843,-0.07669904
1691763263936452,0.35913026,0.49799395,9.31344414,0.58696073,-0.50067431,-0.03195793
1691763263938442,-0.05746084,0.67516488,9.32781029,0.66579026,-0.47936898,-0.05752428
1691763263940599,0.24420857,0.43095630,9.14106178,0.77764302,-0.45806372,-0.03195793
1691763263942440,0.09097967,0.58418524,9.10754299,0.90014845,-0.42077947,-0.08096009
1691763263944565,0.02394202,0.59855044,9.14106178,0.92571479,-0.34834146,-0.12250541
1691763263946471,0.05267244,0.14844051,9.22725296,0.90760529,-0.28442562,-0.21518342
1691763263948481,-0.21068975,0.22984336,9.19852257,0.85647261,-0.20026971,-0.16937704
1691763263950444,-0.23463176,-0.01915361,9.16021538,0.74675035,-0.13741912,-0.18216021
1691763263952453,-0.44053310,-0.20590134,9.33738708,0.58589542,-0.05965481,-0.11398330
1691763263954632,-0.38786069,-0.32561144,9.40921307,0.48149952,-0.02024002,-0.05645901
1691763263956462,-0.51714754,-0.68474168,9.37090588,0.34834146,0.05219796,-0.05006743
1691763263958539,-0.33997664,-0.49320555,9.29429054,0.25140241,0.07563377,0.04367584
1691763263960475,-0.26336220,-0.85233581,9.52413464,0.15233281,0.09906960,0.01171791
1691763263962595,-0.42616791,-0.86191261,9.53371143,0.07137272,0.13954964,0.04048005
1691763263964436,-0.17238252,-0.55545479,9.23682976,0.00106526,0.13528858,0.03728426
1691763263966411,-0.19153613,-0.81402856,9.57680702,-0.05219796,0.14168017,0.01065264
1691763263968433,-0.21068975,-0.52193600,9.48582745,-0.08096009,0.12463594,0.02024002
1691763263970457,-0.09097967,-0.38307226,9.29429054,-0.09906960,0.12144014,-0.00532632
1691763263972441,-0.12928689,-0.45968673,9.64863300,-0.13848437,0.11504856,-0.01171791
1691763263974431,0.11492168,-0.34955344,9.48582745,-0.13741912,0.09587380,-0.00852212
1691763263976419,0.00957681,-0.48362875,9.51934624,-0.19174761,0.07243798,-0.00852212
1691763263978456,0.01915361,-0.29688102,9.63426781,-0.21518342,0.02769688,0.00852212
1691763263980609,0.30166942,-0.55545479,9.82101536,-0.24394555,-0.05432849,0.04154531
1691763263982462,0.12928689,-0.22026655,10.02212811,-0.37071201,-0.14913702,0.02982740
1691763263984466,0.37349546,-0.23942018,10.09874249,-0.43036684,-0.20133498,0.00852212
1691763263986451,0.16280572,-0.78050977,10.40520096,-0.49108690,-0.25672874,-0.00532632
1691763263988455,0.20111294,-0.54587799,10.37647057,-0.55180699,-0.29081720,-0.00745685
1691763263990517,0.40222588,-0.37349546,10.63983250,-0.61785334,-0.32064459,0.02876214
1691763263992455,0.15801731,-0.56503159,10.68771648,-0.65726817,-0.31531829,0.02556635
1691763263994572,0.46447513,-0.18674773,10.58237171,-0.63170183,-0.27483824,0.03089267
1691763263996452,-0.00478840,-0.31124622,10.69729328,-0.62424499,-0.26312032,0.00958738
1691763263998440,0.27293900,-0.11492168,10.58716011,-0.58909124,-0.23861924,0.01384844
1691763264000433,-0.04309563,0.05746084,10.61589050,-0.53795856,-0.19600865,0.01704423
1691763264002427,-0.21068975,-0.07182605,10.52491093,-0.43569314,-0.16937704,0.01704423
1691763264004471,0.22026655,0.33997664,10.31900978,-0.33875409,-0.14381070,0.00852212
1691763264006411,-0.15322891,0.37349546,10.52969933,-0.29933929,-0.11185277,0.02663161
1691763264008468,-0.15801731,0.15322891,10.17056847,-0.22370553,-0.09906960,0.04900216
1691763264010458,0.09097967,0.56981999,10.14183807,-0.18748654,-0.09906960,0.04154531
1691763264012454,-0.33039984,0.21068975,10.21366405,-0.16192019,-0.07882957,0.04048005
1691763264014436,-0.10055647,0.26815060,9.91199493,-0.15339808,-0.06817693,0.06072007
1691763264016421,0.05267244,0.61770403,10.01733971,-0.11504856,-0.03408846,0.01810949
1691763264018457,-0.11013328,0.01915361,9.82580376,-0.11504856,-0.02876214,0.02556635
1691763264020494,0.11971009,0.50757074,9.72524738,-0.12570120,-0.00958738,0.03195793
1691763264022469,-0.10534488,0.14844051,9.81143856,-0.10439591,0.02450108,0.03089267
1691763264024494,-0.01436521,-0.11971009,9.49061584,-0.10972223,0.05219796,0.01810949
1691763264026414,-0.01436521,0.39264908,9.63905621,-0.10120012,0.08948221,0.03621899
1691763264028434,-0.11971009,-0.22026655,9.60074902,-0.09587380,0.10546118,0.04154531
1691763264030455,-0.04788403,-0.01915361,9.51455784,-0.08202536,0.12996227,0.03515373
1691763264032435,-0.04309563,0.11971009,9.67257500,-0.04580637,0.13635385,0.04048005
1691763264034435,0.10534488,-0.24899697,9.50019264,-0.01917476,0.11824435,0.03408846
1691763264036413,0.06703765,0.17717093,9.68694019,-0.00852212,0.10439591,0.04048005
1691763264038579,0.08140286,0.05267244,9.65342140,-0.00106526,0.06817693,0.02450108
1691763264040444,0.12449849,-0.05267244,9.58638382,0.04900216,0.02450108,0.04900216
1691763264042447,-0.00478840,0.37349546,9.77313137,0.05432849,0.00639159,0.05326322
1691763264044443,0.16759412,0.09576806,9.66778660,0.05006743,-0.01278317,0.03941479
1691763264046396,0.19632454,0.11492168,9.78749657,0.08309063,-0.02876214,0.01704423
1691763264048498,0.24420857,0.41180268,9.78749657,0.09587380,-0.03621899,0.00852212
1691763264050435,0.29688102,0.03351882,9.75876617,0.09374327,-0.03195793,0.01704423
1691763264052473,0.05267244,0.14365210,9.84016895,0.07563377,-0.01171791,0.00426106
1691763264054433,0.12928689,0.09097967,9.69651699,0.07456851,-0.00852212,0.01810949
1691763264056435,-0.00478840,-0.29209262,9.78749657,0.05113269,0.01278317,0.01597897
1691763264058436,-0.04309563,0.03830723,9.78749657,0.04900216,0.00532632,0.05219796
1691763264060542,0.04788403,-0.22505496,9.75397778,0.04367584,0.02343582,0.05113269
1691763264062453,0.00478840,-0.31603462,9.77313137,0.01810949,0.02237055,0.04687164
1691763264064435,0.17717093,0.08619126,9.75876617,0.02663161,0.01171791,0.03621899
1691763264066455,0.15322891,-0.26815060,9.86889935,0.04048005,0.00532632,0.01491370
1691763264068425,0.11013328,0.01915361,9.78270817,0.04048005,-0.01597897,0.00958738
1691763264070477,0.09576806,0.16759412,9.81622696,0.03408846,-0.04474111,-0.00426106
1691763264072431,0.02873042,-0.26815060,9.85453415,0.06178534,-0.05645901,0.01278317
1691763264074504,0.04788403,0.14844051,9.78749657,0.07137272,-0.06391586,0.01810949
1691763264076458,0.17717093,0.00000000,9.89284134,0.08735169,-0.07669904,0.02024002
1691763264078659,0.22984336,-0.21547815,9.90720654,0.10546118,-0.09480853,0.02876214
1691763264080486,0.07182605,0.11492168,9.83059216,0.12570120,-0.08096009,0.02769688
1691763264082590,0.22984336,-0.19153613,9.82101536,0.12676647,-0.08948221,0.02237055
1691763264084454,0.10534488,-0.03830723,9.84974575,0.11824435,-0.07882957,0.03195793
1691763264086493,0.02394202,0.05746084,9.88805294,0.10652644,-0.06604639,0.04367584
1691763264088445,-0.14365210,0.21068975,9.85932255,0.08202536,-0.06924219,0.03941479
1691763264090464,-0.27293900,0.47405192,9.89762974,0.07989483,-0.07563377,0.05113269
1691763264092471,-0.28251579,-0.06224924,9.94072533,0.06072007,-0.06604639,0.05113269
1691763264094464,-0.25378537,0.23942018,9.94072533,0.05858954,-0.06391586,0.05645901
1691763264096424,-0.13407530,0.10534488,10.00776291,0.05539375,-0.06498113,0.04048005
1691763264098442,-0.05746084,-0.12928689,9.96466732,0.06924219,-0.06924219,0.05432849
1691763264100440,-0.02873042,0.29688102,9.94551373,0.07882957,-0.05965481,0.04048005
1691763264102436,0.04788403,-0.09576806,9.95509052,0.09800433,-0.05645901,0.03195793
1691763264104528,-0.05746084,-0.02873042,9.96945572,0.10652644,-0.04261058,0.03515373
1691763264106486,-0.10055647,0.12449849,9.96466732,0.10865697,-0.04580637,0.03515373
1691763264108484,-0.04309563,-0.28730419,10.04128170,0.12357067,-0.04154531,0.03834952
1691763264110452,-0.09097967,0.18674773,9.99339771,0.13848437,-0.02237055,0.04580637
1691763264112483,0.09097967,0.05267244,9.98860931,0.14274544,-0.02130529,0.05219796
1691763264114518,0.06703765,-0.16759412,10.01733971,0.14913702,-0.01917476,0.05645901
1691763264116471,-0.00478840,0.16759412,9.95509052,0.15233281,-0.02343582,0.07137272
1691763264118437,0.04788403,-0.23463176,10.01255131,0.12570120,-0.02663161,0.07137272
1691763264120520,-0.10534488,-0.08140286,10.01255131,0.11611383,-0.02876214,0.07563377
1691763264122549,-0.02873042,0.00000000,9.98382092,0.10652644,-0.04261058,0.06285060
1691763264124444,0.07182605,-0.25378537,10.09874249,0.09267800,-0.05965481,0.04687164
1691763264126423,0.08140286,0.18195933,10.04607010,0.07989483,-0.07989483,0.03515373
1691763264128445,0.09576806,-0.03351882,10.09395409,0.08841695,-0.10120012,0.02556635
1691763264130495,0.12449849,0.00478840,10.06043530,0.09267800,-0.11611383,0.02876214
1691763264132453,0.10534488,0.21547815,10.03649330,0.07776430,-0.13635385,0.01171791
1691763264134439,0.09576806,-0.22505496,10.18972206,0.09693906,-0.16192019,0.02663161
1691763264136435,0.20590134,0.00478840,10.09874249,0.10333065,-0.17363811,0.02556635
1691763264138444,0.24420857,0.03830723,10.14662647,0.09906960,-0.18322548,0.03408846
1691763264140464,0.14844051,-0.03351882,10.17056847,0.11078750,-0.19600865,0.03834952
1691763264142438,0.07661445,0.20590134,9.99818611,0.12996227,-0.19068234,0.04474111
1691763264144440,-0.01436521,0.02873042,10.16578007,0.14807175,-0.17896442,0.04687164
1691763264146454,-0.01915361,0.09097967,10.07480049,0.14807175,-0.16937704,0.02982740
1691763264148498,-0.00478840,0.09097967,10.03649330,0.17150757,-0.15978967,0.03621899
1691763264150451,0.02873042,-0.10055647,10.12747288,0.15020229,-0.13102752,0.01384844
1691763264152435,0.11971009,0.01915361,9.97424412,0.14594123,-0.12570120,0.01278317
1691763264154554,-0.02394202,0.02394202,10.10353088,0.12570120,-0.11078750,0.01810949
1691763264156437,0.00957681,0.04788403,10.02691650,0.11398330,-0.10439591,0.01810949
1691763264158467,-0.01915361,0.18195933,9.94072533,0.11504856,-0.10013486,0.01171791
1691763264160437,-0.17717093,-0.01436521,10.06043530,0.10333065,-0.09480853,0.02130529
1691763264162466,-0.00957681,-0.05267244,9.87368774,0.10120012,-0.08948221,0.02663161
1691763264164476,-0.14365210,-0.00478840,9.95987892,0.09800433,-0.09161274,0.01278317
1691763264166416,-0.03351882,-0.13886370,9.92636013,0.12037488,-0.09161274,0.02450108
1691763264168437,0.00957681,0.08619126,9.83538055,0.13315806,-0.08841695,0.02237055
1691763264170465,-0.08140286,0.11013328,9.95030212,0.15552860,-0.07776430,0.02343582
1691763264172451,0.08619126,0.13886370,9.84016895,0.17896442,-0.07350325,0.02024002
1691763264174444,-0.09097967,0.32561144,9.88805294,0.17470337,-0.07030746,0.02556635
1691763264176424,-0.09576806,-0.07661445,9.89762974,0.17257284,-0.06498113,0.00426106
1691763264178437,0.07661445,-0.05746084,9.75397778,0.16511598,-0.04793690,0.00213053
1691763264180499,-0.15801731,-0.09097967,9.87368774,0.14381070,-0.02663161,0.01704423
1691763264182475,-0.09097967,-0.28730419,9.77791977,0.10759171,-0.01065264,0.01917476
1691763264184432,-0.10534488,-0.02873042,9.81622696,0.08309063,0.01065264,0.02024002
1691763264186418,-0.41180268,-0.24420857,9.91678333,0.07243798,0.03195793,0.01491370
1691763264188475,-0.02873042,-0.03351882,9.72045898,0.06391586,0.04580637,0.01384844
1691763264190468,-0.11013328,0.19153613,9.87368774,0.05006743,0.05432849,0.00319579
1691763264192439,-0.17238252,-0.21547815,9.87847614,0.05006743,0.05858954,0.00639159
1691763264194438,0.29209262,0.15801731,9.72045898,0.05752428,0.06924219,-0.00319579
1691763264196423,-0.02873042,0.10055647,9.93593693,0.06498113,0.05858954,-0.00852212
1691763264198475,-0.03351882,-0.10055647,9.76834297,0.07882957,0.04048005,0.00426106
1691763264200441,0.07182605,0.18195933,9.81622696,0.06498113,0.02876214,-0.00319579
1691763264202435,-0.29688102,-0.16280572,9.91678333,0.07989483,0.01278317,-0.01384844
1691763264204457,0.09097967,0.01915361,9.71567059,0.11611383,0.00319579,0.01278317
1691763264206583,-0.07661445,0.49799395,9.74918938,0.15339808,0.02982740,0.00852212
1691763264208460,-0.05746084,0.12928689,9.57680702,0.24394555,0.06178534,0.00532632
1691763264210424,0.17238252,0.31124622,9.46188545,0.33023196,0.07989483,-0.00319579
1691763264212457,-0.06703765,0.49799395,9.53371143,0.38136467,0.13315806,-0.01810949
1691763264214479,-0.09576806,0.13886370,9.36132908,0.40906155,0.15659387,-0.02130529
1691763264216431,-0.13886370,0.33518824,9.38527107,0.45060685,0.17363811,0.00958738
1691763264218442,-0.25378537,0.04309563,9.35654068,0.45380265,0.19174761,-0.01384844
1691763264220455,-0.21068975,0.01436521,9.24640656,0.41332260,0.20240024,-0.03621899
1691763264222471,-0.17717093,0.27772740,9.45230865,0.38136467,0.20559603,-0.01810949
1691763264224440,-0.31124622,-0.40701428,9.34217548,0.33875409,0.19707392,-0.02450108
1691763264226418,0.01915361,0.02873042,9.18894577,0.26418558,0.21092236,-0.01597897
1691763264228445,-0.02873042,-0.15801731,9.50976944,0.22477080,0.19068234,-0.02024002
1691763264230484,-0.17717093,-0.63685763,9.34217548,0.14274544,0.18216021,-0.00532632
1691763264232511,0.22505496,-0.03830723,9.29907894,0.04580637,0.16937704,-0.03834952
1691763264234467,-0.11492168,-0.44532153,9.62947941,-0.00532632,0.14168017,-0.05539375
1691763264236423,0.09576806,-0.37828386,9.46667385,-0.05432849,0.12570120,-0.03302320
1691763264238475,0.11971009,-0.24420857,9.55765343,-0.10972223,0.10226539,-0.05113269
1691763264240468,-0.04309563,-0.31603462,9.70609379,-0.11717909,0.08841695,-0.05432849
1691763264242472,0.33518824,-0.10534488,9.64384460,-0.11824435,0.06285060,-0.04793690
1691763264244441,0.06703765,-0.13886370,9.72045898,-0.13315806,0.05006743,-0.02663161
1691763264246421,0.19632454,0.00000000,9.66299820,-0.15978967,0.04261058,-0.01917476
1691763264248560,0.11971009,-0.29209262,9.68215179,-0.12463594,0.04580637,-0.03515373
1691763264250437,-0.02394202,0.00000000,9.76355457,-0.13528858,0.04474111,-0.05219796
1691763264252445,0.08619126,-0.12449849,9.71088219,-0.13635385,0.02343582,-0.06178534
1691763264254503,-0.06224924,-0.35434186,9.82580376,-0.13422331,0.01384844,-0.05752428
1691763264256477,0.08619126,0.06703765,9.78270817,-0.15659387,0.01278317,-0.05006743
1691763264258468,0.07661445,-0.28730419,9.85932255,-0.15233281,-0.00213053,-0.04367584
1691763264260479,0.01436521,0.17717093,9.87847614,-0.16724652,-0.01171791,-0.05539375
1691763264262447,-0.02394202,-0.45489833,9.99339771,-0.18961707,-0.02450108,-0.06498113
1691763264264624,-0.03351882,-0.30645782,9.98382092,-0.20240024,-0.02343582,-0.06711166
1691763264266443,0.11971009,0.11971009,10.05085850,-0.20240024,-0.03834952,-0.05965481
1691763264268497,-0.12449849,-0.36391866,10.11310768,-0.20772657,-0.03941479,-0.05326322
1691763264270452,0.25378537,0.25857377,9.99339771,-0.23435818,-0.02982740,-0.05326322
1691763264272506,0.19632454,0.17238252,10.08437729,-0.23009712,-0.02450108,-0.05006743
1691763264274489,-0.24899697,-0.32082301,10.20408726,-0.22370553,-0.01065264,-0.05006743
1691763264276434,0.14844051,0.25378537,10.03170490,-0.23861924,-0.01065264,-0.04793690
1691763264278449,0.01436521,-0.21547815,10.36210537,-0.28336033,-0.00106526,-0.03834952
1691763264280509,-0.19153613,-0.22026655,10.23760605,-0.32384038,-0.00532632,-0.04474111
1691763264282622,0.33518824,0.03830723,10.38604736,-0.37923414,-0.01491370,-0.02876214
1691763264284460,-0.33518824,-0.44053310,10.61589050,-0.45699844,-0.02556635,-0.03195793
1691763264286426,0.03830723,-0.14844051,10.40041256,-0.49002165,-0.02982740,-0.02663161
1691763264288452,0.04788403,-0.21068975,10.80742645,-0.51878381,-0.03621899,-0.03621899
1691763264290493,-0.15801731,-0.28730419,10.60631371,-0.55180699,-0.05539375,-0.02876214
1691763264292471,0.43095630,-0.05746084,10.73081207,-0.57737333,-0.07563377,-0.03834952
1691763264294442,-0.21547815,-0.20590134,10.83136845,-0.59335232,-0.10226539,-0.04048005
1691763264296478,0.33039984,-0.08619126,10.56800652,-0.58376491,-0.12357067,-0.04367584
1691763264298518,0.01436521,-0.11492168,10.95586681,-0.56991649,-0.15233281,-0.02556635
1691763264300527,-0.12449849,-0.03351882,10.63983250,-0.54754591,-0.16085494,-0.02237055
1691763264302453,0.43095630,0.04788403,10.64940929,-0.48363006,-0.16937704,0.00639159
1691763264304444,-0.17238252,0.25378537,10.75475407,-0.41971418,-0.17257284,0.01810949
1691763264306440,0.22026655,0.29688102,10.35252857,-0.34727621,-0.15552860,0.03302320
1691763264308455,-0.06224924,0.34476504,10.73560047,-0.30466563,-0.14807175,0.03728426
1691763264310443,-0.27293900,0.36391866,10.36210537,-0.26631612,-0.11291803,0.01491370
1691763264312444,0.31603462,0.42616791,10.36689377,-0.20559603,-0.10546118,0.01597897
1691763264314506,-0.34476504,0.22984336,10.61110210,-0.18855180,-0.08522116,0.02024002
1691763264316451,0.02873042,0.24899697,10.00297451,-0.18002969,-0.06817693,0.00958738
1691763264318654,0.04309563,0.35913026,10.36689377,-0.15765914,-0.04154531,-0.00426106
1691763264320447,-0.05267244,0.29688102,9.90241814,-0.12889700,-0.01491370,0.01278317
1691763264322440,0.21068975,0.44053310,9.93114853,-0.13848437,0.00213053,0.02130529
1691763264324523,-0.36391866,0.10534488,10.36689377,-0.11824435,0.02343582,0.01810949
1691763264326459,-0.11013328,0.17717093,9.81622696,-0.10759171,0.01810949,0.02663161
1691763264328446,0.18674773,0.49320555,10.13704967,-0.10759171,0.01597897,0.01491370
1691763264330444,-0.37828386,-0.11013328,10.09874249,-0.06924219,0.01278317,0.01917476
1691763264332512,0.30645782,0.38307226,9.68215179,-0.05965481,0.02237055,0.01810949
1691763264334457,-0.08619126,0.07182605,10.19451046,-0.04900216,0.03089267,0.02024002
1691763264336419,-0.20590134,-0.01915361,9.75876617,-0.03621899,0.03089267,0.00852212
1691763264338487,0.18195933,0.37349546,9.92157173,-0.02982740,0.03515373,0.00426106
1691763264340553,-0.30166942,-0.19153613,10.15141487,-0.02237055,0.04474111,0.00958738
1691763264342448,0.18674773,0.25857377,9.70130539,-0.03195793,0.04261058,0.01704423
1691763264344438,0.08140286,-0.03351882,10.16099167,-0.03089267,0.04261058,0.02130529
1691763264346426,-0.23942018,-0.24899697,9.88326454,-0.01171791,0.02982740,0.02024002
1691763264348541,0.16280572,0.42137951,9.77313137,0.00106526,0.03302320,0.01917476
1691763264350473,-0.18195933,0.01436521,10.07480049,0.01917476,0.04580637,0.05752428
1691763264352462,-0.15322891,0.42616791,9.65342140,0.08522116,0.11185277,0.08735169
1691763264354476,0.01436521,0.50757074,9.80186176,0.20453078,0.16192019,0.11504856
1691763264356465,-0.29209262,0.68474168,9.84974575,0.34834146,0.26312032,0.11291803
1691763264358467,-0.13407530,0.73262572,9.58638382,0.44101948,0.32490566,0.06604639
1691763264360555,-0.40222588,0.42616791,9.60074902,0.53902382,0.34621096,0.03089267
1691763264362496,-0.38307226,0.71347213,9.38048267,0.62211442,0.41651839,0.00639159
1691763264364465,-0.38307226,0.30645782,9.36611748,0.64555025,0.41012681,0.02663161
1691763264366562,-0.35913026,0.36870706,9.17458057,0.61359233,0.43782368,0.03941479
1691763264368494,-0.25378537,0.17717093,9.09317780,0.58909124,0.41545314,0.07350325
1691763264370404,-0.06703765,0.08140286,8.94473743,0.55819857,0.42290998,0.05219796
1691763264372459,0.15322891,0.05746084,9.11711979,0.49215218,0.31851408,0.07030746
1691763264374475,-0.17238252,-0.44532153,9.13627338,0.43888894,0.30146983,0.00852212
1691763264376446,0.63206923,0.00478840,8.96867943,0.29827404,0.22690132,-0.01065264
1691763264378448,0.07182605,-0.56024319,9.34696388,0.24501082,0.18002969,-0.04261058
1691763264380523,0.14844051,-0.41180268,9.19852257,0.18961707,0.13848437,-0.02450108
1691763264382514,0.75656772,-0.19153613,9.29429054,0.08628642,0.07669904,-0.07456851
1691763264384545,-0.03351882,-0.49799395,9.50498104,0.04687164,0.04580637,-0.06711166
1691763264386444,0.67995328,-0.25378537,9.39005947,0.01278317,0.01384844,-0.05113269
1691763264388514,0.17717093,-0.46926352,9.42357826,0.00319579,0.00213053,-0.04048005
1691763264390539,0.31603462,-0.09576806,9.49540424,-0.03621899,-0.03195793,-0.04580637
1691763264392482,0.21547815,-0.52193600,9.58638382,-0.01278317,-0.01810949,-0.01810949
1691763264394466,0.16280572,-0.30645782,9.61032581,-0.01917476,-0.02556635,-0.02556635
1691763264396445,0.24420857,-0.03830723,9.61511421,-0.03195793,-0.03089267,-0.03621899
1691763264398504,-0.11013328,-0.49320555,9.83538055,-0.01917476,-0.03089267,-0.02130529
1691763264400463,0.16280572,0.17238252,9.66299820,-0.03941479,-0.00532632,-0.03089267
1691763264402542,0.01436521,-0.12928689,9.84495735,-0.02769688,-0.03195793,-0.04474111
1691763264404449,0.07661445,-0.06703765,9.78270817,-0.03408846,-0.02024002,-0.05006743
1691763264406485,0.10534488,0.08140286,9.81143856,-0.04474111,-0.03089267,-0.04900216
1691763264408516,-0.04309563,-0.30645782,9.89762974,-0.07669904,-0.02876214,-0.06391586
1691763264410570,0.10534488,0.11492168,9.81143856,-0.08522116,-0.03408846,-0.06924219
1691763264412457,-0.32561144,-0.13407530,10.04607010,-0.09267800,-0.04474111,-0.05858954
1691763264414457,0.07182605,-0.13886370,9.91199493,-0.10439591,-0.05752428,-0.06178534
1691763264416463,0.08140286,0.09576806,10.05085850,-0.09906960,-0.04048005,-0.06924219
1691763264418522,-0.23942018,-0.23942018,10.07480049,-0.10652644,-0.02556635,-0.05965481
1691763264420457,0.33518824,0.08619126,9.94551373,-0.12144014,-0.03302320,-0.06817693
1691763264422528,-0.25857377,-0.03351882,10.22324085,-0.13848437,-0.00745685,-0.05539375
1691763264424599,-0.06703765,-0.21068975,9.95987892,-0.14061491,0.00426106,-0.05432849
1691763264426441,0.10055647,0.06224924,10.06043530,-0.13741912,0.03941479,-0.05113269
1691763264428512,-0.48362875,-0.17717093,10.11789608,-0.13848437,0.05539375,-0.04793690
1691763264430483,0.01436521,-0.06224924,9.89762974,-0.15872440,0.08096009,-0.04474111
1691763264432508,-0.26336220,-0.03830723,10.28070164,-0.17150757,0.09054748,-0.03515373
1691763264434474,-0.29688102,-0.24899697,10.03170490,-0.15765914,0.09374327,-0.04048005
1691763264436428,0.03830723,0.07661445,10.12268448,-0.17789917,0.09480853,-0.05006743
1691763264438448,-0.37349546,0.05267244,10.29506683,-0.18855180,0.08948221,-0.06711166
1691763264440449,0.14365210,-0.00478840,9.93593693,-0.17257284,0.07989483,-0.06178534
1691763264442449,-0.02873042,0.19632454,10.35731697,-0.17150757,0.06285060,-0.06711166
1691763264444455,-0.14365210,0.10055647,10.14662647,-0.15872440,0.04900216,-0.06604639
1691763264446434,0.13886370,0.06224924,10.10831928,-0.15659387,0.04580637,-0.05432849
1691763264448472,-0.37349546,0.13407530,10.32379818,-0.14913702,0.05326322,-0.05965481
1691763264450450,0.08140286,-0.07182605,9.96466732,-0.16298546,0.06711166,-0.06072007
1691763264452463,-0.03351882,0.01436521,10.32858658,-0.15765914,0.06178534,-0.05006743
1691763264454449,-0.09097967,-0.00478840,10.15141487,-0.17257284,0.07137272,-0.03515373
1691763264456443,0.18195933,-0.02394202,10.13226128,-0.17363811,0.08735169,-0.04154531
1691763264458496,-0.15322891,0.29688102,10.34774017,-0.18642128,0.08415589,-0.05752428
1691763264460469,0.07661445,0.06224924,10.07001209,-0.20026971,0.07456851,-0.06498113
1691763264462458,-0.06703765,0.00000000,10.34295177,-0.18109496,0.06072007,-0.06178534
1691763264464510,0.00478840,0.11971009,10.23760605,-0.16937704,0.05113269,-0.07137272
1691763264466433,0.02394202,-0.10534488,10.23760605,-0.16937704,0.04261058,-0.07669904
1691763264468450,-0.10055647,0.26815060,10.37168217,-0.15126754,0.03089267,-0.05219796
1691763264470446,0.21068975,0.11492168,10.15620327,-0.13954964,0.03089267,-0.05858954
1691763264472443,0.02873042,0.07182605,10.50096893,-0.13528858,0.04048005,-0.06391586
1691763264474586,0.14365210,0.25378537,10.42914295,-0.14061491,0.04793690,-0.05539375
1691763264476448,-0.03830723,-0.03830723,10.44829655,-0.12996227,0.05326322,-0.04367584
1691763264478453,-0.11492168,0.28251579,10.41956615,-0.11930962,0.04048005,-0.02982740
1691763264480447,0.16759412,0.17238252,10.16099167,-0.10013486,0.00426106,-0.02769688
1691763264482449,-0.02394202,0.09097967,10.25197124,-0.05858954,-0.03728426,-0.01597897
1691763264484482,0.25857377,0.42137951,9.93593693,-0.00213053,-0.09267800,-0.00958738
1691763264486429,0.13886370,0.22026655,9.84016895,0.01597897,-0.12037488,-0.02024002
1691763264488468,0.00478840,0.41659111,9.82580376,0.05006743,-0.14913702,-0.02769688
1691763264490495,0.29209262,0.36870706,9.68694019,0.07989483,-0.15552860,-0.01597897
1691763264492502,0.14365210,0.11013328,9.67736340,0.10972223,-0.14807175,-0.03302320
1691763264494464,0.19632454,0.34476504,9.64863300,0.10013486,-0.11504856,-0.05858954
1691763264496459,0.10534488,0.07182605,9.66778660,0.10546118,-0.10120012,-0.05858954
1691763264498462,-0.24899697,-0.10055647,9.91678333,0.02769688,-0.04261058,-0.06285060
1691763264500662,-0.01436521,0.10534488,9.83538055,-0.01171791,0.02769688,-0.08522116
1691763264502474,-0.37828386,-0.13886370,10.27112484,-0.08628642,0.08948221,-0.03195793
1691763264504479,-0.51235914,-0.11971009,10.25197124,-0.10013486,0.11504856,-0.04900216
1691763264506447,0.03830723,-0.06703765,10.04128170,-0.11611383,0.13315806,-0.03195793
1691763264508512,-0.27293900,-0.09097967,10.43871975,-0.10013486,0.12463594,-0.02343582
1691763264510450,-0.11013328,-0.05267244,10.15620327,-0.08735169,0.07989483,-0.03089267
1691763264512449,0.21547815,-0.14844051,10.21845245,-0.08735169,0.00639159,-0.07669904
1691763264514460,-0.25857377,0.00957681,10.18014526,-0.07989483,-0.10439591,-0.06072007
1691763264516434,0.55545479,-0.22026655,9.97903252,-0.08415589,-0.24074976,-0.04154531
1691763264518462,-0.02394202,0.10534488,9.99818611,-0.03728426,-0.30999196,-0.05539375
1691763264520444,0.33997664,0.43574470,9.60074902,0.04687164,-0.34194988,-0.01917476
1691763264522462,0.23942018,0.23942018,9.61511421,0.16405073,-0.38562572,0.04793690
1691763264524479,-0.07182605,0.69910687,9.38048267,0.24181503,-0.38029939,0.02982740
1691763264526493,0.48841715,0.54587799,9.14585018,0.33768883,-0.35899413,0.07563377
1691763264528520,-0.09097967,0.56024319,9.42836666,0.39734364,-0.28549087,-0.00426106
1691763264530452,0.01915361,0.67516488,9.04050541,0.42610577,-0.19281286,0.00213053
1691763264532489,-0.04788403,0.38307226,9.08360100,0.44847631,-0.13315806,-0.06498113
1691763264534479,-0.43574470,0.34476504,9.35175228,0.39521310,-0.06498113,-0.04900216
1691763264536451,-0.21547815,0.18674773,8.97825623,0.35366780,-0.00319579,-0.04900216
1691763264538453,-0.28730419,0.11971009,9.30386734,0.29401299,0.05965481,0.00000000
1691763264540598,-0.30645782,0.01436521,9.34696388,0.27803403,0.03728426,0.00639159
1691763264542500,-0.33039984,-0.00478840,9.25119495,0.20133498,0.07563377,0.03408846
1691763264544477,-0.25857377,0.01436521,9.48103905,0.17257284,0.05858954,0.05326322
1691763264546431,-0.24899697,-0.33039984,9.34696388,0.13635385,0.04261058,0.01704423
1691763264548535,0.07182605,-0.05267244,9.39963627,0.10759171,0.04793690,0.01810949
1691763264550509,-0.07661445,-0.16759412,9.50019264,0.09587380,0.01917476,0.01384844
1691763264552470,0.02873042,-0.11971009,9.51455784,0.07456851,0.01171791,0.02663161
1691763264554452,0.04788403,-0.32082301,9.58159542,0.05752428,0.00532632,0.00852212
1691763264556460,-0.14365210,0.00957681,9.61990261,0.02663161,0.03515373,0.01171791
1691763264558518,-0.01436521,-0.23942018,9.74440098,0.05539375,0.00852212,0.02769688
1691763264560476,-0.21068975,-0.29209262,9.79228497,0.03408846,0.02982740,0.01917476
1691763264562446,-0.04309563,0.14365210,9.68694019,0.01917476,0.07563377,0.02343582
1691763264564475,-0.20590134,-0.20590134,9.88326454,0.05432849,0.03834952,0.02876214
1691763264566517,-0.05746084,0.25857377,9.77791977,0.04793690,0.07456851,0.01384844
1691763264568464,0.06703765,0.04309563,9.87368774,0.04154531,0.07243798,0.00000000
1691763264570453,-0.15801731,-0.21068975,10.05564690,0.03515373,0.06391586,0.01384844
1691763264572476,0.10534488,0.38786069,9.89284134,0.04793690,0.07989483,0.02343582
1691763264574493,-0.23463176,-0.38307226,10.08916569,0.04793690,0.08202536,0.01171791
1691763264576505,-0.11971009,0.12449849,10.02212811,0.02769688,0.08096009,0.01065264
1691763264578454,0.21068975,-0.00478840,10.15620327,0.02982740,0.08415589,0.02982740
1691763264580464,-0.37349546,-0.38307226,10.29027843,0.01065264,0.08841695,0.02982740
1691763264582465,0.36391866,0.06703765,10.23760605,-0.01065264,0.08735169,0.02130529
1691763264584483,-0.01915361,-0.33518824,10.41477776,-0.02130529,0.10439591,0.02556635
1691763264586438,0.07182605,0.27293900,10.15141487,-0.01171791,0.10652644,0.02769688
1691763264588503,0.39743748,0.10534488,10.28070164,-0.01278317,0.10865697,0.02130529
1691763264590477,-0.28251579,-0.22984336,10.52012253,0.01597897,0.11398330,0.01384844
1691763264592487,0.03830723,0.25378537,10.24718285,0.02556635,0.11398330,0.01171791
1691763264594543,-0.05746084,-0.27293900,10.51054573,0.00106526,0.12357067,0.00213053
1691763264596429,-0.19632454,0.11013328,10.39562416,0.00958738,0.12676647,0.02343582
1691763264598491,0.26336220,0.01915361,10.40041256,0.02024002,0.12570120,0.03195793
1691763264600470,-0.23463176,-0.11492168,10.60152531,0.02237055,0.12889700,0.03728426
1691763264602486,0.21547815,0.34476504,10.28070164,0.01917476,0.12463594,0.04687164
1691763264604456,-0.06703765,-0.24420857,10.56321812,0.02237055,0.12144014,0.03515373
1691763264606517,-0.24420857,0.15801731,10.42914295,0.02450108,0.11930962,0.02769688
1691763264608516,0.31603462,-0.08619126,10.46266174,0.01704423,0.11291803,0.03728426
1691763264610544,-0.23463176,-0.21547815,10.62546730,0.00213053,0.11398330,0.02237055
1691763264612457,0.21068975,-0.14365210,10.36210537,-0.01384844,0.12144014,0.01171791
1691763264614472,0.10055647,-0.19632454,10.51533413,-0.01917476,0.12357067,0.00745685
1691763264616486,-0.08140286,0.19153613,10.41956615,-0.04261058,0.12250541,0.00639159
1691763264618512,0.10534488,-0.15801731,10.36210537,-0.05858954,0.12889700,0.00319579
1691763264620459,-0.24420857,-0.33039984,10.55842972,-0.06285060,0.12037488,0.00852212
1691763264622452,0.01915361,0.10534488,10.31900978,-0.07563377,0.11717909,0.00106526
1691763264624508,-0.10055647,-0.40701428,10.51054573,-0.07776430,0.11398330,0.01491370
1691763264626477,0.04788403,0.16280572,10.48181534,-0.06924219,0.12037488,0.00426106
1691763264628489,0.11971009,-0.14844051,10.37647057,-0.04261058,0.09800433,0.00426106
1691763264630455,-0.05267244,-0.00478840,10.48181534,-0.03195793,0.09800433,0.00532632
1691763264632479,0.11013328,0.30166942,10.36210537,-0.02024002,0.10652644,0.01065264
1691763264634505,-0.12449849,-0.37349546,10.40998936,-0.00532632,0.11185277,0.00639159
1691763264636432,0.12928689,0.31124622,10.31422138,-0.00958738,0.10972223,0.00958738
1691763264638464,-0.01915361,-0.27293900,10.34295177,-0.00639159,0.10546118,0.03515373
1691763264640484,-0.07661445,0.00000000,10.32379818,0.00639159,0.10972223,0.04367584
1691763264642507,0.23942018,0.41180268,10.34295177,0.00319579,0.10865697,0.03621899
1691763264644470,-0.14365210,-0.32561144,10.34774017,-0.02982740,0.10226539,0.03089267
1691763264646447,0.19632454,0.27772740,10.21845245,-0.03941479,0.08415589,0.03515373
1691763264648495,-0.11971009,-0.31124622,10.31900978,-0.05432849,0.09054748,0.02130529
1691763264650536,-0.00957681,-0.11971009,10.15141487,-0.08735169,0.07563377,0.02237055
1691763264652458,0.27293900,0.11971009,10.29985619,-0.10333065,0.07350325,0.01810949
1691763264654463,-0.31124622,-0.43574470,10.26633644,-0.11398330,0.07882957,0.01810949
1691763264656464,0.31124622,0.28251579,10.15620327,-0.13528858,0.07776430,0.01810949
1691763264658475,-0.03351882,-0.25378537,10.45787334,-0.16192019,0.06817693,0.03515373
1691763264660492,-0.01915361,-0.23942018,10.20887566,-0.19174761,0.07030746,0.02450108
1691763264662459,0.33039984,-0.02394202,10.38125896,-0.19813919,0.05326322,0.01810949
1691763264664514,-0.26336220,-0.24420857,10.36210537,-0.18535601,0.03302320,0.00639159
1691763264666471,0.25378537,0.28730419,10.08437729,-0.14807175,0.02663161,0.01597897
1691763264668503,-0.09576806,-0.07182605,10.27591324,-0.11398330,0.01171791,0.02237055
1691763264670460,0.01915361,0.16280572,9.85932255,-0.03515373,0.00958738,0.03408846
1691763264672472,0.35434186,0.39264908,9.95509052,0.02982740,-0.00426106,0.04261058
1691763264674498,-0.29688102,0.15801731,9.98860931,0.08628642,0.00852212,0.01917476
1691763264676457,0.15801731,0.46447513,9.61990261,0.12463594,0.01171791,0.02024002
1691763264678491,-0.09097967,0.11971009,9.98860931,0.13209279,0.02556635,0.00958738
1691763264680467,-0.27772740,0.09576806,9.73482418,0.14381070,0.02024002,0.01597897
1691763264682482,0.40222588,0.25378537,9.87368774,0.14061491,0.04261058,0.00532632
1691763264684511,-0.27772740,-0.14844051,10.10353088,0.09800433,0.02769688,0.02663161
1691763264686474,0.18674773,0.14844051,9.72524738,0.02769688,0.03302320,0.02663161
1691763264688460,-0.00478840,-0.13407530,10.21845245,-0.00106526,0.02450108,0.03089267
1691763264690477,-0.14365210,-0.25378537,9.92636013,-0.03941479,0.00319579,0.02982740
1691763264692470,0.30645782,0.11492168,9.81622696,-0.05645901,-0.01491370,0.00745685
1691763264694451,-0.19632454,-0.28730419,9.99818611,-0.02024002,-0.02450108,0.02450108
1691763264696431,0.11971009,-0.03830723,9.46667385,0.03941479,-0.03089267,0.01810949
1691763264698475,0.00478840,0.08619126,9.75876617,0.06391586,-0.05965481,0.05006743
1691763264700490,0.04788403,0.04309563,9.62469101,0.08841695,-0.03302320,0.02343582
1691763264702521,-0.08140286,0.07182605,9.69651699,0.12889700,-0.02450108,0.02876214
1691763264704455,0.02873042,0.07661445,9.74918938,0.12996227,0.00958738,-0.00106526
1691763264706433,0.07661445,0.20590134,9.55286503,0.11824435,0.02237055,0.02556635
1691763264708461,-0.08619126,0.10055647,9.84495735,0.11611383,0.07350325,0.00532632
1691763264710527,-0.20111294,-0.06224924,9.73003578,0.10013486,0.06604639,0.01704423
1691763264712458,0.02394202,0.02394202,9.69651699,0.06072007,0.06285060,0.00532632
1691763264714457,-0.22505496,-0.27772740,9.85453415,0.04154531,-0.00852212,0.01597897
1691763264716459,0.12928689,-0.13886370,9.54328823,0.03302320,-0.04474111,0.02556635
1691763264718564,-0.04309563,-0.06224924,9.74918938,0.03515373,-0.10120012,0.03089267
1691763264720471,0.23463176,0.06224924,9.52413464,0.06391586,-0.12996227,0.05858954
1691763264722449,0.24899697,0.26336220,9.37569427,0.11291803,-0.14700650,0.02876214
1691763264724483,-0.05267244,0.23463176,9.49540424,0.19387813,-0.15446334,0.02237055
1691763264726477,0.40222588,0.40222588,9.13627338,0.24394555,-0.15126754,0.01810949
1691763264728475,-0.15322891,0.19632454,9.42836666,0.29188246,-0.12570120,0.04580637
1691763264730456,-0.07661445,0.24420857,9.20331097,0.30892667,-0.09374327,0.00639159
1691763264732474,0.03351882,0.30166942,9.16979218,0.35047200,-0.07669904,0.00639159
1691763264734514,-0.27772740,0.12449849,9.46667385,0.33981934,-0.04261058,0.02024002
1691763264736460,-0.04309563,0.17717093,9.15063858,0.30146983,-0.02024002,-0.00319579
1691763264738464,-0.05267244,0.03351882,9.38048267,0.26951191,0.00958738,0.00852212
1691763264740457,-0.25378537,-0.19632454,9.34696388,0.21411815,0.01917476,0.00000000
1691763264742477,0.14844051,0.02394202,9.23204136,0.17576863,0.01384844,0.02876214
1691763264744480,-0.44532153,-0.43095630,9.49540424,0.10546118,0.02130529,-0.02237055
1691763264746442,-0.10534488,-0.11971009,9.26556015,0.08948221,0.01278317,0.00213053
1691763264748470,0.25378537,-0.02394202,9.54807663,0.07776430,0.00319579,-0.02876214
1691763264750470,-0.14844051,-0.22984336,9.45709705,0.05752428,-0.03408846,-0.00639159
1691763264752483,0.27293900,-0.17238252,9.38527107,0.03941479,-0.03728426,-0.01065264
1691763264754481,-0.03830723,-0.24899697,9.92157173,0.02130529,-0.06285060,-0.02556635
1691763264756423,-0.06703765,-0.30166942,9.61032581,0.04580637,-0.08628642,-0.00319579
1691763264758510,-0.00957681,-0.14365210,10.05564690,0.03515373,-0.09693906,-0.02130529
1691763264760465,-0.13407530,0.01436521,10.07001209,0.01917476,-0.10759171,-0.02024002
1691763264762484,0.36870706,-0.21547815,9.86889935,-0.00852212,-0.10546118,-0.01597897
1691763264764464,-0.14365210,-0.08619126,10.24239445,-0.04900216,-0.10865697,0.00213053
1691763264766438,0.11492168,-0.11492168,10.07958889,-0.06178534,-0.10333065,0.00000000
1691763264768482,0.00957681,-0.37828386,10.13704967,-0.08522116,-0.10013486,0.02663161
1691763264770462,-0.14844051,-0.04788403,10.31900978,-0.09161274,-0.08628642,0.02237055
1691763264772458,0.02873042,-0.22984336,10.04128170,-0.08948221,-0.07989483,0.01917476
1691763264774464,-0.19632454,-0.09097967,10.18014526,-0.07243798,-0.06924219,0.02876214
1691763264776440,-0.01915361,0.06224924,9.97903252,-0.02450108,-0.03941479,0.02556635
1691763264778497,-0.25378537,-0.10534488,9.98382092,0.04048005,-0.02876214,0.00532632
1691763264780440,0.01915361,0.42616791,10.00297451,0.06498113,-0.01704423,0.02024002
1691763264782477,-0.37349546,-0.07182605,9.95509052,0.11611383,0.01384844,0.00426106
1691763264784455,-0.12449849,0.12449849,9.94072533,0.14807175,0.01491370,-0.00319579
1691763264786463,-0.08140286,0.05746084,9.87847614,0.14061491,0.01491370,0.00000000
1691763264788471,-0.29209262,-0.03830723,9.92636013,0.12570120,0.03195793,0.01065264
1691763264790468,-0.12928689,0.23463176,9.84974575,0.12889700,0.03302320,-0.00745685
1691763264792467,-0.03351882,-0.10534488,9.82580376,0.10546118,0.03195793,0.00852212
1691763264794486,-0.22505496,-0.09576806,9.94551373,0.05326322,0.03089267,-0.01171791
1691763264796463,0.11971009,-0.11013328,9.79228497,0.03195793,0.03728426,0.00745685
1691763264798461,-0.02873042,-0.17238252,9.93114853,0.01384844,0.03515373,0.00639159
1691763264800484,-0.09576806,0.14844051,9.89284134,-0.02769688,0.03621899,-0.00426106
1691763264802483,0.21547815,-0.21547815,9.87847614,-0.05858954,0.02982740,-0.00639159
1691763264804493,-0.13886370,0.04788403,9.92157173,-0.06391586,0.01810949,-0.02343582
1691763264806451,0.10534488,-0.19632454,9.83059216,-0.07882957,0.02343582,-0.02130529
1691763264808490,-0.01915361,-0.24899697,10.06522369,-0.07563377,0.01917476,-0.02663161
1691763264810502,-0.22026655,0.09576806,9.98860931,-0.06498113,0.01384844,-0.00958738
1691763264812494,0.29209262,-0.29688102,9.90720654,-0.04048005,0.00852212,-0.02024002
1691763264814480,-0.19632454,0.22505496,10.12747288,-0.03728426,0.00639159,-0.01810949
1691763264816468,0.21547815,0.02873042,9.95509052,-0.04154531,-0.00213053,-0.00106526
1691763264818521,0.08619126,-0.24420857,10.19451046,-0.04793690,-0.01384844,0.00106526
1691763264820529,-0.13407530,0.28730419,10.07001209,-0.05965481,-0.02769688,-0.01597897
1691763264822465,0.19632454,-0.44532153,10.01255131,-0.06072007,-0.03728426,-0.01810949
1691763264824489,-0.19632454,0.11492168,10.28070164,-0.07350325,-0.02663161,0.00106526
1691763264826498,0.16280572,-0.08140286,10.04607010,-0.08202536,-0.01810949,-0.00532632
1691763264828530,0.07182605,-0.33039984,10.24239445,-0.08735169,-0.02130529,0.00106526
1691763264830462,-0.01915361,0.43574470,10.24239445,-0.08735169,-0.01597897,0.00426106
1691763264832492,-0.02394202,-0.45010993,10.08916569,-0.07882957,-0.00426106,-0.00852212
1691763264834496,-0.00957681,0.30645782,10.33337498,-0.07137272,0.00745685,-0.00213053
1691763264836505,0.11971009,0.00957681,10.18014526,-0.05965481,0.00852212,-0.01171791
1691763264838476,-0.21547815,-0.36391866,10.27112484,-0.06604639,0.01597897,-0.01278317
1691763264840462,0.03830723,0.51714754,10.30464458,-0.06178534,0.00532632,-0.00852212
1691763264842534,-0.23942018,-0.55066639,10.30464458,-0.05858954,0.00639159,-0.00426106
1691763264844578,0.13886370,0.55545479,10.39083576,-0.07137272,0.01384844,0.00319579
1691763264846459,0.04788403,-0.04788403,10.46745014,-0.08522116,0.00745685,0.00319579
1691763264848493,-0.25378537,-0.38307226,10.52969933,-0.12570120,0.00426106,0.00532632
1691763264850495,0.29688102,0.36870706,10.53927612,-0.14487596,-0.00213053,-0.00426106
1691763264852539,-0.25857377,-0.55545479,10.59194851,-0.18216021,0.00106526,-0.01384844
1691763264854414,0.17717093,0.17238252,10.58716011,-0.20666130,-0.00532632,-0.02769688
1691763264856441,-0.31603462,-0.56024319,10.72602367,-0.25033715,-0.01384844,-0.02343582
1691763264858489,-0.24899697,-0.39743748,10.65898609,-0.25779399,-0.03515373,-0.03621899
1691763264860488,0.42137951,0.15801731,10.72123528,-0.28655612,-0.05432849,-0.03408846
1691763264862488,-0.31124622,-0.44053310,10.63504410,-0.26525083,-0.08309063,-0.04580637
1691763264864489,0.42137951,0.34476504,10.48181534,-0.25992453,-0.09267800,-0.02769688
1691763264866439,-0.08619126,-0.13407530,10.54406452,-0.23116238,-0.09587380,-0.02450108
1691763264868496,0.00000000,0.07182605,10.21845245,-0.17044231,-0.09054748,-0.01704423
1691763264870502,0.16280572,0.30166942,10.15141487,-0.12144014,-0.08309063,0.00532632
1691763264872485,-0.32561144,-0.02873042,10.13226128,-0.09161274,-0.04048005,-0.00532632
1691763264874477,0.21547815,0.49799395,9.87847614,-0.04261058,-0.02237055,-0.01065264
1691763264876479,-0.16280572,0.07661445,10.02691650,-0.00745685,-0.00958738,-0.00958738
1691763264878639,-0.06224924,0.49799395,9.79707336,-0.00745685,0.01384844,0.01597897
1691763264880477,-0.26336220,-0.10055647,9.96466732,0.03408846,0.02024002,-0.00745685
1691763264882456,-0.30166942,-0.06703765,9.89762974,0.02876214,0.02343582,0.01278317
1691763264884478,0.07182605,0.12928689,9.81622696,0.01917476,0.03302320,0.00000000
1691763264886522,-0.33997664,-0.25857377,10.00776291,-0.00745685,0.05113269,-0.00426106
1691763264888472,-0.10055647,0.17717093,9.76355457,-0.02024002,0.03408846,-0.00319579
1691763264890488,0.07182605,-0.07182605,9.86411095,-0.05006743,0.06178534,-0.01278317
1691763264892498,-0.09097967,-0.19632454,9.90241814,-0.06072007,0.05539375,-0.03728426
1691763264894545,0.20111294,0.45010993,9.74918938,-0.05965481,0.03621899,-0.04261058
1691763264896448,-0.13886370,-0.28251579,9.97424412,-0.04900216,0.01384844,-0.03834952
1691763264898494,0.10055647,0.37828386,9.71088219,-0.02130529,0.00958738,-0.05752428
1691763264900497,0.09097967,0.06224924,9.79707336,-0.01384844,-0.00958738,-0.04048005
1691763264902528,0.19153613,0.44053310,9.64863300,0.02556635,-0.01597897,-0.03621899
1691763264904557,0.14365210,0.49320555,9.68215179,0.02982740,-0.01171791,-0.03728426
1691763264906445,-0.15322891,-0.37349546,9.92636013,0.04793690,-0.02982740,-0.03515373
1691763264908516,0.20590134,0.33518824,9.76834297,0.03621899,-0.02982740,-0.04261058
1691763264910485,0.15801731,0.12928689,9.86889935,0.03621899,-0.01917476,-0.03302320
1691763264912500,-0.12928689,-0.23942018,9.79228497,0.02450108,-0.03089267,-0.03621899
1691763264914480,0.30166942,0.56503159,9.80186176,0.02130529,-0.02450108,-0.03195793
1691763264916446,-0.33039984,-0.40701428,10.07480049,-0.00745685,-0.01065264,-0.02556635
1691763264918615,-0.02873042,0.04309563,9.85453415,-0.02982740,-0.00532632,-0.03089267
1691763264920498,-0.20590134,-0.40222588,10.31422138,-0.05539375,0.02024002,-0.02024002
1691763264922457,-0.40222588,-0.51714754,10.17056847,-0.07030746,0.03089267,-0.03089267
1691763264924464,0.14844051,0.08140286,10.25197124,-0.07137272,0.03941479,-0.02663161
1691763264926449,-0.23942018,-0.37349546,10.35252857,-0.05432849,0.02663161,-0.02450108
1691763264928494,-0.06224924,0.11492168,9.98382092,-0.04474111,0.01810949,-0.00426106
1691763264930461,0.11013328,0.15801731,10.03649330,-0.04793690,0.00106526,-0.02769688
1691763264932464,-0.23942018,-0.20590134,9.93593693,-0.02769688,0.00106526,-0.01810949
1691763264934495,0.20590134,0.24899697,9.70130539,-0.02237055,-0.02024002,-0.00319579
1691763264936524,-0.17238252,-0.17717093,9.95509052,0.00319579,-0.02876214,0.00000000
1691763264938470,-0.02394202,0.20590134,9.60074902,0.05006743,-0.02556635,-0.00213053
1691763264940442,0.13407530,0.22984336,9.71567059,0.08202536,-0.00745685,0.01171791
1691763264942464,-0.05267244,0.17238252,9.50019264,0.08948221,0.00426106,-0.01171791
1691763264944474,0.22026655,0.38786069,9.47146225,0.09054748,0.00639159,-0.00852212
1691763264946463,-0.11013328,-0.07661445,9.87847614,0.05965481,0.02024002,0.00852212
1691763264948473,-0.08140286,0.10534488,9.61032581,0.02769688,0.00958738,0.02663161
1691763264950485,0.12928689,-0.02394202,9.78749657,-0.03195793,0.02876214,0.01171791
1691763264952480,-0.22984336,-0.34476504,9.85932255,-0.06285060,-0.01171791,0.02237055
1691763264954508,0.17238252,-0.10055647,9.73003578,-0.09161274,-0.02982740,-0.00745685
1691763264956449,-0.13886370,-0.33039984,9.99339771,-0.12676647,-0.06498113,0.00000000
1691763264958465,0.14844051,-0.11492168,9.72524738,-0.14807175,-0.07776430,-0.02450108
1691763264960465,-0.03351882,-0.19153613,9.84016895,-0.12250541,-0.10865697,-0.00639159
1691763264962614,0.04309563,-0.06224924,9.73003578,-0.07882957,-0.10226539,-0.02237055
1691763264964468,0.32561144,0.26815060,9.56244183,-0.06817693,-0.10865697,-0.02556635
1691763264966450,-0.14365210,-0.05746084,9.81622696,-0.01278317,-0.12144014,0.00000000
1691763264968491,0.19632454,0.19153613,9.49061584,0.01917476,-0.08841695,-0.00639159
1691763264970526,-0.03830723,0.16759412,9.75397778,0.04474111,-0.06924219,0.00106526
1691763264972493,-0.12449849,0.11492168,9.75876617,0.01810949,-0.05432849,-0.01704423
1691763264974472,0.03351882,0.28251579,9.70130539,0.02130529,-0.04048005,0.01704423
1691763264976576,-0.28730419,-0.11971009,9.99818611,0.00319579,-0.00532632,-0.00213053
1691763264978513,0.07182605,0.08619126,9.79228497,-0.02876214,0.00319579,0.00532632
1691763264980583,-0.02394202,-0.06703765,10.19929886,-0.06604639,0.04261058,-0.00532632
1691763264982478,-0.34955344,-0.21547815,10.09874249,-0.07563377,0.05752428,-0.01065264
1691763264984554,0.31124622,0.31124622,9.94551373,-0.06178534,0.05858954,-0.02130529
1691763264986489,-0.27293900,-0.03830723,10.24239445,-0.03408846,0.05645901,0.00106526
1691763264988476,-0.20590134,0.16759412,9.69651699,0.04154531,0.05326322,-0.01597897
1691763264990468,0.22984336,0.32082301,9.81143856,0.13102752,0.03728426,-0.02556635
1691763264992480,-0.45968673,-0.02394202,9.72524738,0.21305288,0.04793690,-0.02130529
1691763264994507,0.23942018,0.56981999,9.35654068,0.26844662,0.04154531,-0.00319579
1691763264996466,-0.13886370,0.33518824,9.67736340,0.30573088,0.04474111,-0.02343582
1691763264998537,-0.26815060,0.16280572,9.27513695,0.35047200,0.05539375,-0.00106526
1691763265000467,0.31124622,0.55545479,9.39005947,0.36112463,0.06285060,-0.00532632
1691763265002575,-0.45010993,-0.13886370,9.57201862,0.32916671,0.05752428,0.00639159
1691763265004492,0.14844051,0.20111294,9.27992535,0.25885925,0.08841695,-0.00319579
1691763265006458,-0.14365210,-0.19632454,9.79228497,0.21092236,0.09693906,-0.00852212
1691763265008468,-0.31124622,-0.39264908,9.54328823,0.14913702,0.09480853,-0.02450108
1691763265010486,0.15801731,0.10534488,9.84495735,0.07137272,0.15552860,-0.01917476
1691763265012651,-0.19153613,-0.63685763,9.90720654,-0.02450108,0.16618125,-0.00639159
1691763265014487,0.07661445,-0.20111294,9.74440098,-0.07350325,0.20240024,-0.00213053
1691763265016451,-0.22984336,-0.33518824,10.23281765,-0.11398330,0.17576863,0.01917476
1691763265018491,-0.11971009,-0.60812724,10.09874249,-0.11611383,0.18109496,-0.00213053
1691763265020622,0.00478840,-0.11492168,10.08916569,-0.10652644,0.14381070,-0.00639159
1691763265022485,-0.09097967,-0.39264908,10.14662647,-0.07563377,0.13102752,-0.01704423
1691763265024562,0.13886370,0.21547815,9.91199493,-0.03834952,0.08522116,-0.02343582
1691763265026447,-0.06703765,0.01436521,10.07001209,0.04793690,0.00000000,-0.00426106
1691763265028485,0.21547815,0.04788403,9.86889935,0.05326322,0.01065264,-0.00745685
1691763265030518,0.12449849,0.26815060,9.90720654,0.09480853,-0.00745685,0.00639159
1691763265032470,0.15322891,-0.05267244,9.96945572,0.12783173,-0.04580637,0.01065264
1691763265034539,0.22026655,0.31603462,9.87847614,0.09693906,-0.06285060,0.01917476
1691763265036489,-0.03351882,0.01915361,10.10831928,0.03089267,0.00000000,0.01278317
1691763265038519,0.14365210,-0.05746084,10.01733971,-0.02237055,-0.02663161,-0.00106526
1691763265040471,-0.07661445,-0.08140286,10.14183807,-0.03621899,0.00106526,0.00745685
1691763265042544,-0.22026655,-0.29688102,10.17056847,-0.10972223,0.06711166,-0.01491370
1691763265044504,0.16280572,-0.07182605,10.23760605,-0.11824435,0.07137272,0.00852212
1691763265046505,-0.36870706,-0.24899697,10.41477776,-0.15872440,0.11185277,0.03302320
1691763265048473,-0.08140286,-0.20590134,10.15620327,-0.16511598,0.16405073,0.00532632
1691763265050469,0.04309563,0.00957681,10.39083576,-0.15978967,0.14913702,-0.01065264
1691763265052489,-0.32561144,-0.15322891,10.41956615,-0.13635385,0.14168017,0.01597897
1691763265054532,0.22505496,0.05746084,10.32858658,-0.15233281,0.15126754,-0.01491370
1691763265056461,-0.26815060,0.10534488,10.51054573,-0.10546118,0.09800433,-0.01704423
1691763265058471,0.07182605,0.01915361,10.17535686,-0.07243798,0.09480853,0.00319579
1691763265060472,0.01915361,0.13886370,10.42435455,-0.06178534,0.08415589,-0.01065264
1691763265062528,-0.20111294,0.07661445,10.36210537,-0.02663161,0.06924219,-0.02343582
1691763265064513,0.45489833,0.10534488,10.27112484,0.03728426,0.05539375,0.00213053
1691763265066462,-0.30166942,0.26336220,10.43871975,0.02663161,0.06391586,-0.02343582
1691763265068510,0.16280572,0.17717093,10.04607010,0.02876214,0.06604639,-0.02663161
1691763265070536,0.21547815,0.16759412,10.41477776,0.05752428,0.06817693,0.01065264
1691763265072510,-0.33039984,0.01915361,10.23760605,0.03941479,0.05113269,0.01597897
1691763265074480,0.34955344,0.03351882,10.11310768,0.00958738,0.03941479,0.01597897
1691763265076450,-0.21547815,0.12928689,10.48660374,0.01171791,0.01491370,0.03941479
1691763265078495,0.11971009,-0.06703765,9.98382092,0.01597897,0.00106526,0.04048005
1691763265080543,0.24899697,0.15801731,10.28070164,0.03621899,-0.00532632,0.02130529
1691763265082501,-0.05746084,0.07661445,10.25675964,0.01810949,-0.03941479,0.01917476
1691763265084473,0.28251579,-0.10055647,9.98860931,0.02876214,-0.06178534,0.01491370
1691763265086544,-0.17238252,0.22505496,10.30464458,0.03089267,-0.06072007,-0.00852212
1691763265088493,0.25857377,-0.08140286,9.93114853,0.05113269,-0.07776430,-0.00958738
1691763265090537,0.13886370,0.03830723,10.16578007,0.04261058,-0.10546118,0.01171791
1691763265092471,-0.05267244,0.05746084,10.14662647,0.04793690,-0.10439591,-0.00958738
1691763265094510,0.16759412,-0.05267244,9.87368774,0.05539375,-0.10120012,-0.02450108
1691763265096493,-0.06224924,0.33039984,10.16099167,0.06604639,-0.09267800,-0.01171791
1691763265098598,0.01915361,-0.13407530,9.83059216,0.07243798,-0.08309063,0.01704423
1691763265100474,-0.04309563,0.10055647,9.93593693,0.06072007,-0.04793690,0.00532632
1691763265102522,-0.03830723,0.07182605,9.98860931,0.07137272,-0.04154531,0.00852212
1691763265104563,-0.13886370,-0.10055647,9.85453415,0.06498113,-0.03515373,0.01278317
1691763265106429,-0.09097967,0.29209262,9.97903252,0.07243798,-0.03089267,0.01704423
1691763265108507,0.00957681,-0.15801731,9.90720654,0.07882957,-0.04261058,0.00532632
1691763265110479,-0.09097967,0.08140286,9.94551373,0.08415589,-0.05432849,0.00852212
1691763265112520,0.15322891,0.07661445,9.88805294,0.07989483,-0.07456851,0.00532632
1691763265114481,-0.12449849,0.00000000,9.92157173,0.08096009,-0.08415589,0.00532632
1691763265116475,0.01915361,0.29688102,9.91199493,0.07882957,-0.10865697,-0.00639159
1691763265118496,0.20111294,-0.15322891,9.90241814,0.06498113,-0.11185277,-0.00852212
1691763265120518,-0.24420857,0.00957681,9.99818611,0.08309063,-0.12463594,-0.01278317
1691763265122557,0.23942018,-0.02394202,9.87368774,0.08522116,-0.12676647,-0.00852212
1691763265124499,-0.07182605,-0.05267244,10.04128170,0.07456851,-0.12996227,-0.00958738
1691763265126499,0.00957681,0.21547815,9.88805294,0.07882957,-0.13528858,0.00000000
1691763265128483,0.22505496,-0.15801731,9.89762974,0.07030746,-0.14061491,0.00319579
1691763265130555,-0.34476504,0.13886370,10.02691650,0.06391586,-0.15233281,0.00213053
1691763265132500,0.18195933,0.02873042,9.83538055,0.07669904,-0.15339808,0.01384844
1691763265134474,-0.15322891,-0.08140286,10.08916569,0.09161274,-0.14913702,0.01597897
1691763265136481,-0.11492168,0.26815060,9.90720654,0.09906960,-0.14700650,0.01384844
1691763265138603,0.27293900,-0.21068975,9.90720654,0.09906960,-0.14168017,0.01065264
1691763265140572,-0.28251579,0.20590134,10.05564690,0.10333065,-0.12570120,0.00745685
1691763265142477,0.09097967,0.07182605,9.71567059,0.11717909,-0.11930962,-0.00106526
1691763265144542,-0.08140286,-0.03830723,10.05564690,0.11717909,-0.11078750,-0.00532632
1691763265146486,-0.20111294,0.23942018,9.89762974,0.09800433,-0.10333065,0.00426106
1691763265148537,0.03830723,-0.33039984,9.77313137,0.07563377,-0.09800433,0.01065264
1691763265150485,-0.23942018,0.10534488,10.03170490,0.09800433,-0.10439591,-0.00319579
1691763265152472,-0.09576806,0.04788403,9.57680702,0.14274544,-0.12037488,-0.00745685
1691763265154525,-0.02394202,0.09576806,9.67736340,0.21092236,-0.13528858,-0.00745685
1691763265156515,-0.09576806,0.51235914,9.48582745,0.23968449,-0.13102752,0.00106526
1691763265158484,0.13886370,-0.04788403,9.19373417,0.30999196,-0.13741912,-0.01171791
1691763265160473,0.04309563,0.34476504,9.53371143,0.31212249,-0.12996227,-0.01384844
1691763265162504,-0.05746084,0.15801731,9.29907894,0.28549087,-0.11078750,-0.01917476
1691763265164538,0.09576806,-0.05267244,9.37090588,0.24394555,-0.08841695,-0.01704423
1691763265166451,-0.13407530,0.20111294,9.46188545,0.24394555,-0.12889700,-0.00958738
1691763265168489,0.07182605,-0.21547815,9.28950214,0.14913702,-0.14594123,0.01384844
1691763265170532,0.18674773,-0.12449849,9.36611748,0.13209279,-0.17683390,0.01597897
1691763265172620,0.47405192,-0.36870706,9.13148499,0.10759171,-0.21198763,0.01171791
1691763265174480,0.11492168,-0.10534488,9.13148499,0.10652644,-0.26205504,0.01491370
1691763265176459,0.40222588,0.02394202,8.98783302,0.11717909,-0.28229508,0.01491370
1691763265178508,0.14844051,-0.22026655,8.97825623,0.17150757,-0.28975192,0.01917476
1691763265180529,0.14844051,0.15322891,8.84418106,0.19600865,-0.26951191,0.00319579
1691763265182487,0.24420857,-0.01436521,8.84418106,0.18535601,-0.23968449,0.01491370
1691763265184495,-0.29688102,-0.12928689,9.04529381,0.20985709,-0.20026971,0.01491370
1691763265186520,0.01915361,0.13886370,8.83460426,0.20666130,-0.12037488,-0.00319579
1691763265188511,-0.09097967,-0.10055647,9.13627338,0.21518342,-0.07776430,-0.00852212
1691763265190485,-0.50278234,-0.06224924,9.17936897,0.17257284,-0.00213053,-0.01491370
1691763265192472,-0.04309563,-0.05746084,9.03571701,0.15233281,0.02876214,0.01278317
1691763265194471,-0.44053310,-0.14844051,9.48103905,0.12037488,0.07882957,0.01278317
1691763265196503,-0.42137951,-0.00478840,9.33259869,0.05965481,0.08948221,0.02450108
1691763265198488,-0.03830723,-0.18195933,9.49540424,-0.00426106,0.12357067,0.00639159
1691763265200476,-0.44053310,-0.29209262,9.65820980,-0.04474111,0.10013486,0.01491370
1691763265202497,0.10534488,-0.15322891,9.50498104,-0.08415589,0.07989483,-0.00532632
1691763265204542,-0.05746084,-0.22984336,9.86411095,-0.15446334,0.08735169,-0.00106526
1691763265206536,-0.11013328,-0.13886370,9.73961258,-0.15446334,0.05752428,0.01065264
1691763265208478,0.25857377,-0.27293900,9.84974575,-0.16085494,0.03408846,-0.00319579
1691763265210476,-0.22984336,-0.08619126,9.99818611,-0.17683390,0.03302320,0.00426106
1691763265212549,0.08619126,-0.03830723,9.95987892,-0.18642128,0.03195793,0.00426106
1691763265214503,-0.05267244,-0.33039984,10.20887566,-0.17470337,0.02556635,-0.00106526
1691763265216464,0.06224924,0.17238252,10.16578007,-0.19813919,0.04154531,-0.01384844
1691763265218474,0.04788403,-0.30166942,10.30464458,-0.18642128,0.03195793,0.02237055
1691763265220513,-0.11492168,0.04309563,10.30464458,-0.19707392,0.03302320,-0.00106526
1691763265222526,-0.03830723,-0.26336220,10.29027843,-0.18642128,0.03195793,0.00319579
1691763265224469,-0.20111294,-0.34955344,10.33816338,-0.16405073,0.02450108,-0.00745685
1691763265226458,0.21068975,0.45489833,10.19929886,-0.16831177,0.02769688,-0.00106526
1691763265228539,-0.06703765,-0.29688102,10.36210537,-0.17896442,0.01704423,-0.00852212
1691763265230542,-0.21547815,0.04309563,10.27112484,-0.18322548,0.00852212,-0.00639159
1691763265232521,0.29688102,0.34955344,10.25675964,-0.18429075,0.01171791,-0.02130529
1691763265234488,-0.33518824,-0.46447513,10.41477776,-0.17683390,0.00852212,0.00532632
1691763265236453,0.25857377,0.52672440,10.21366405,-0.18002969,0.00958738,0.00106526
1691763265238538,-0.11971009,-0.17238252,10.38604736,-0.18322548,0.02769688,0.00106526
1691763265240525,-0.15322891,0.22505496,10.19929886,-0.16724652,0.04687164,0.00958738
1691763265242513,0.21068975,0.38786069,10.20887566,-0.14487596,0.06604639,0.01704423
1691763265244481,-0.52672440,-0.44053310,10.43393135,-0.14274544,0.09161274,0.00852212
1691763265246504,0.17238252,0.47884035,10.15620327,-0.14274544,0.10120012,0.00426106
1691763265248499,-0.29209262,-0.27293900,10.49139214,-0.13422331,0.10972223,0.01065264
1691763265250482,-0.21547815,0.18674773,10.28549004,-0.14061491,0.11930962,0.01491370
1691763265252475,0.28251579,0.21547815,10.31900978,-0.14274544,0.11717909,0.01384844
1691763265254537,-0.45968673,-0.28251579,10.51054573,-0.14700650,0.10652644,0.00745685
1691763265256503,0.14365210,0.46447513,10.17535686,-0.15552860,0.10013486,0.00639159
1691763265258611,-0.16759412,-0.37349546,10.50575733,-0.17470337,0.09906960,0.00852212
1691763265260476,0.14365210,0.49799395,10.08916569,-0.15552860,0.11185277,0.00426106
1691763265262481,0.24420857,0.01436521,10.20408726,-0.15126754,0.12037488,0.00426106
1691763265264565,-0.24420857,-0.17238252,10.40041256,-0.15872440,0.12250541,-0.00106526
1691763265266459,0.10055647,0.45010993,10.05085850,-0.15126754,0.12357067,0.00106526
1691763265268469,-0.10534488,-0.29209262,10.37168217,-0.13954964,0.12463594,-0.00213053
1691763265270529,-0.07182605,0.28251579,10.15620327,-0.16192019,0.13528858,-0.01384844
1691763265272512,0.05746084,-0.11013328,10.07958889,-0.17576863,0.13635385,-0.00213053
1691763265274524,-0.27772740,-0.17717093,10.21845245,-0.18216021,0.14807175,-0.00106526
1691763265276457,0.01436521,0.34955344,9.91678333,-0.17470337,0.14274544,-0.00426106
1691763265278499,-0.07661445,-0.33518824,10.20408726,-0.17363811,0.12996227,-0.01384844
1691763265280558,0.02394202,0.33039984,10.08916569,-0.17789917,0.10865697,-0.00426106
1691763265282477,0.02394202,-0.15322891,10.04128170,-0.19068234,0.10013486,-0.01065264
1691763265284480,-0.09576806,-0.02873042,10.19451046,-0.16618125,0.09267800,0.00745685
1691763265286453,0.00000000,0.39743748,10.18493366,-0.16511598,0.09693906,0.02024002
1691763265288538,-0.16280572,-0.45489833,10.32858658,-0.20026971,0.13635385,0.00958738
1691763265290458,0.05746084,0.32082301,10.35731697,-0.20985709,0.15233281,-0.01065264
1691763265292499,-0.20111294,-0.28730419,10.42914295,-0.20666130,0.18855180,-0.00213053
1691763265294572,-0.16280572,-0.02394202,10.56321812,-0.23329291,0.20453078,-0.01810949
1691763265296543,0.11013328,0.22984336,10.59194851,-0.24181503,0.24394555,-0.00852212
1691763265298515,-0.36391866,-0.51235914,10.63504410,-0.24501082,0.25459820,-0.02130529
1691763265300549,0.27293900,0.45968673,10.58716011,-0.23861924,0.26312032,-0.01384844
1691763265302480,-0.33518824,-0.24420857,10.71165848,-0.24820662,0.24288028,-0.01917476
1691763265304494,-0.16280572,0.00478840,10.48181534,-0.24820662,0.22477080,0.00106526
1691763265306486,0.28251579,0.16280572,10.53927612,-0.27590349,0.17789917,-0.01384844
1691763265308515,-0.37349546,-0.40222588,10.43393135,-0.23648870,0.13635385,-0.02556635
1691763265310476,0.51235914,0.58897364,10.38125896,-0.18642128,0.09374327,-0.01704423
1691763265312512,-0.16280572,-0.15801731,10.48660374,-0.20985709,0.05539375,-0.01384844
1691763265314533,0.31603462,0.23463176,10.10831928,-0.16937704,0.02876214,-0.01384844
1691763265316463,0.29688102,0.29688102,10.29985619,-0.12250541,0.00426106,-0.00106526
1691763265318484,-0.17717093,-0.04788403,10.15620327,-0.13528858,-0.00532632,-0.00319579
1691763265320491,0.57460839,0.58897364,10.08916569,-0.12570120,0.00000000,0.00639159
1691763265322506,-0.29209262,-0.11492168,10.17056847,-0.06498113,0.01278317,0.00852212
1691763265324529,0.25857377,0.47405192,9.77313137,-0.05326322,0.02982740,-0.00213053
1691763265326466,0.11013328,0.20590134,10.02691650,-0.00213053,0.04261058,0.01384844
1691763265328481,-0.41180268,-0.10055647,9.94551373,0.01278317,0.06817693,0.01917476
1691763265330528,0.33039984,0.59376204,9.68694019,0.02024002,0.08309063,0.00532632
1691763265332600,-0.30166942,-0.10055647,10.07958889,0.04580637,0.09800433,0.00532632
1691763265334481,-0.09097967,0.45968673,9.72524738,0.05645901,0.10439591,0.01278317
1691763265336488,0.21547815,0.18195933,9.92636013,0.07776430,0.11185277,0.01384844
1691763265338522,-0.28730419,0.03351882,9.97424412,0.09054748,0.11504856,0.01065264
1691763265340613,0.11013328,0.53630120,9.65820980,0.08735169,0.09480853,0.00532632
1691763265342494,-0.08140286,-0.26336220,10.02212811,0.08735169,0.07563377,0.01278317
1691763265344481,-0.10055647,0.28251579,9.70609379,0.10120012,0.05219796,0.02024002
1691763265346496,0.35434186,0.05746084,9.91199493,0.10439591,0.00958738,0.00319579
1691763265348535,-0.06224924,-0.11013328,10.01733971,0.09161274,-0.02130529,0.00958738
1691763265350499,0.28251579,0.44053310,9.73482418,0.10226539,-0.04367584,0.00213053
1691763265352495,0.19153613,-0.12928689,10.06043530,0.09800433,-0.07137272,0.00852212
1691763265354546,0.05746084,0.28730419,9.82580376,0.12037488,-0.10120012,-0.00426106
1691763265356528,0.26336220,-0.01915361,9.84974575,0.11078750,-0.10333065,0.00852212
1691763265358515,-0.09097967,-0.18674773,9.95030212,0.10652644,-0.11078750,0.00000000
1691763265360517,0.21547815,0.06224924,9.76355457,0.12037488,-0.10439591,-0.00532632
1691763265362589,0.02873042,-0.11492168,9.93114853,0.11824435,-0.10120012,-0.00532632
1691763265364503,0.05267244,0.32082301,9.74440098,0.11611383,-0.09054748,-0.01278317
1691763265366491,0.17717093,0.00957681,9.76355457,0.13528858,-0.08735169,0.00852212
1691763265368480,-0.15801731,0.03830723,9.91199493,0.13741912,-0.07882957,-0.00106526
1691763265370542,-0.00478840,0.33518824,9.76834297,0.13741912,-0.07350325,0.00000000
1691763265372525,-0.22026655,-0.24899697,10.02212811,0.12037488,-0.06178534,-0.01065264
1691763265374545,-0.08140286,0.12928689,9.87368774,0.12037488,-0.05539375,-0.00852212
1691763265376472,0.01436521,-0.16759412,9.95030212,0.11824435,-0.05006743,-0.02130529
1691763265378482,-0.16280572,-0.06703765,10.02691650,0.11930962,-0.04048005,-0.01491370
1691763265380523,0.19632454,0.38307226,9.88805294,0.12889700,-0.03195793,-0.01171791
1691763265382545,-0.20590134,-0.14365210,10.04128170,0.13635385,-0.03941479,-0.00639159
1691763265384495,0.11492168,0.46926352,9.81622696,0.14274544,-0.01597897,-0.00745685
1691763265386469,0.01436521,0.03830723,9.93593693,0.13954964,-0.00745685,0.00106526
1691763265388534,-0.33997664,-0.04309563,9.91678333,0.16724652,-0.00426106,0.00958738
1691763265390496,0.18195933,0.44532153,9.80186176,0.18748654,0.00106526,0.00852212
1691763265392507,-0.34476504,-0.29688102,10.05564690,0.20240024,0.00426106,0.01171791
1691763265394494,0.15322891,0.36870706,9.80665016,0.20453078,-0.01171791,0.02343582
1691763265396486,0.16280572,0.01915361,10.05564690,0.18429075,-0.02130529,0.02024002
1691763265398523,-0.26815060,-0.12928689,9.99818611,0.17044231,-0.04048005,0.02343582
1691763265400497,0.43574470,0.42137951,9.95030212,0.16085494,-0.06711166,0.01810949
1691763265402485,-0.29209262,-0.33518824,10.19929886,0.14913702,-0.08309063,-0.00106526
1691763265404482,0.17238252,0.17717093,9.82580376,0.12996227,-0.09800433,-0.01491370
1691763265406507,0.22984336,-0.12449849,10.15141487,0.11717909,-0.10120012,-0.01597897
1691763265408496,-0.22026655,-0.24420857,10.02212811,0.10439591,-0.11185277,-0.00745685
1691763265410482,0.51235914,0.32561144,9.95030212,0.10546118,-0.11078750,-0.01171791
1691763265412516,-0.16280572,-0.28251579,10.21366405,0.10013486,-0.10546118,-0.00639159
1691763265414499,0.12928689,0.28251579,9.78270817,0.09587380,-0.09054748,-0.00532632
1691763265416466,0.17717093,0.00000000,10.03649330,0.11078750,-0.07989483,0.01065264
1691763265418485,-0.35913026,-0.13407530,9.99339771,0.10972223,-0.06817693,-0.00106526
1691763265420481,0.23463176,0.31603462,9.82101536,0.11930962,-0.07137272,0.00106526
1691763265422500,-0.24420857,-0.26815060,10.18014526,0.13422331,-0.06604639,-0.00213053
1691763265424503,-0.04788403,0.33039984,9.78270817,0.14061491,-0.06285060,-0.01278317
1691763265426464,0.17717093,0.05267244,10.07001209,0.14061491,-0.07030746,0.00000000
1691763265428486,-0.31124622,-0.01915361,10.07958889,0.15446334,-0.06604639,-0.00958738
1691763265430521,0.21547815,0.38786069,9.83059216,0.16405073,-0.07137272,0.00319579
1691763265432546,-0.15801731,-0.26336220,10.26154804,0.16618125,-0.06924219,-0.01384844
1691763265434488,-0.03830723,0.17238252,9.85453415,0.15552860,-0.07030746,-0.00852212
1691763265436460,0.14365210,-0.10534488,10.03170490,0.13954964,-0.06711166,-0.01278317
1691763265438592,-0.23463176,-0.16759412,10.13704967,0.12357067,-0.07243798,-0.01810949
1691763265440495,0.15322891,0.24420857,9.90241814,0.11504856,-0.08096009,-0.01597897
1691763265442476,-0.09576806,-0.24899697,10.17535686,0.11504856,-0.07882957,-0.00852212
1691763265444488,0.03351882,0.23942018,9.82580376,0.12889700,-0.05965481,-0.00745685
1691763265446481,0.02394202,0.00478840,9.84974575,0.13741912,-0.05539375,0.00213053
1691763265448507,-0.11971009,-0.00478840,9.84016895,0.15233281,-0.04261058,0.00426106
1691763265450489,0.01915361,0.34955344,9.63905621,0.17150757,-0.02343582,-0.00106526
1691763265452485,-0.21068975,-0.18195933,9.82101536,0.18002969,-0.00852212,-0.00958738
1691763265454516,0.02394202,0.31124622,9.60074902,0.18748654,0.00639159,-0.01278317
1691763265456489,-0.12928689,-0.05746084,9.74918938,0.19920444,0.01065264,-0.01491370
1691763265458543,-0.22026655,-0.08619126,9.72045898,0.21198763,0.02663161,-0.01491370
1691763265460486,0.11971009,0.37828386,9.64863300,0.21411815,0.02663161,-0.01917476
1691763265462483,-0.31124622,-0.25857377,9.82580376,0.21411815,0.03728426,-0.02769688
1691763265464538,0.15801731,0.35913026,9.54328823,0.20772657,0.03621899,-0.02237055
1691763265466484,0.02394202,0.07182605,9.76834297,0.21092236,0.03195793,-0.02130529
1691763265468514,-0.25857377,-0.14365210,9.63905621,0.21518342,0.02556635,-0.01704423
1691763265470495,0.22026655,0.39743748,9.63426781,0.20026971,0.01810949,-0.01384844
1691763265472606,-0.39743748,-0.28251579,9.87368774,0.17683390,0.01171791,-0.01810949
1691763265474580,0.14844051,0.08140286,9.53371143,0.15765914,-0.00745685,-0.02237055
1691763265476470,0.12449849,-0.10534488,9.86889935,0.14061491,-0.01278317,-0.02982740
1691763265478507,-0.25857377,-0.33518824,9.69651699,0.11930962,-0.02450108,-0.02982740
1691763265480501,0.50757074,0.26336220,9.63426781,0.10865697,-0.02450108,-0.02982740
1691763265482616,-0.15801731,-0.21068975,9.94551373,0.10759171,-0.02663161,-0.01491370
1691763265484503,0.13407530,0.22505496,9.55765343,0.10652644,-0.02343582,-0.00958738
1691763265486427,0.20111294,0.17717093,9.91199493,0.10652644,-0.02130529,-0.01171791
1691763265488508,-0.34476504,-0.16280572,9.78749657,0.11717909,-0.01704423,0.00319579
1691763265490517,0.28251579,0.16759412,9.68694019,0.11611383,-0.01491370,0.00745685
1691763265492503,-0.18195933,-0.28730419,10.14183807,0.08948221,-0.02663161,0.01278317
1691763265494485,-0.02873042,-0.02873042,9.73003578,0.06817693,-0.03302320,0.02024002
1691763265496497,0.24899697,-0.00957681,10.07001209,0.03515373,-0.04687164,0.01384844
1691763265498523,-0.14844051,-0.11013328,10.04607010,0.01065264,-0.07456851,0.00532632
1691763265500504,0.39743748,0.11492168,9.85453415,-0.00426106,-0.09587380,-0.00745685
1691763265502497,-0.01436521,-0.23942018,10.22324085,-0.01491370,-0.11930962,-0.01810949
1691763265504501,0.11971009,0.00957681,9.83059216,-0.03621899,-0.12676647,-0.04048005
1691763265506470,0.11971009,-0.12449849,10.00297451,-0.05432849,-0.14594123,-0.02556635
1691763265508517,0.01915361,-0.19153613,10.10353088,-0.05539375,-0.15339808,-0.01810949
1691763265510521,0.17717093,0.07182605,9.67736340,-0.05752428,-0.13954964,-0.02769688
1691763265512487,-0.02394202,0.00000000,9.96945572,-0.04154531,-0.13422331,-0.02024002
1691763265514522,-0.07661445,0.00478840,9.86889935,-0.03195793,-0.10865697,-0.01278317
1691763265516515,-0.00957681,0.04788403,9.84495735,-0.02237055,-0.09480853,-0.01491370
1691763265518630,-0.08140286,0.11492168,9.84495735,-0.03302320,-0.07030746,-0.01810949
1691763265520486,-0.00957681,0.18674773,9.76834297,-0.00639159,-0.05432849,-0.00426106
1691763265522572,-0.13886370,-0.03830723,9.95030212,-0.00639159,-0.04474111,0.00106526
1691763265524513,-0.03351882,0.16759412,9.74918938,-0.00852212,-0.03941479,-0.01491370
1691763265526510,0.05267244,0.17717093,9.82580376,-0.01810949,-0.03728426,-0.01171791
1691763265528556,-0.19632454,-0.09097967,9.88326454,-0.03089267,-0.03728426,-0.00639159
1691763265530564,0.08140286,0.08619126,9.73961258,-0.04367584,-0.04154531,-0.00639159
1691763265532669,-0.22984336,-0.15801731,9.97903252,-0.03408846,-0.04154531,-0.00639159
1691763265534587,-0.21547815,-0.10534488,9.83538055,-0.04048005,-0.03728426,-0.00426106
1691763265536487,0.14844051,0.15801731,9.76834297,-0.04261058,-0.03195793,-0.00106526
1691763265538496,-0.31124622,-0.21547815,9.93114853,-0.03195793,-0.02876214,0.00213053
1691763265540539,0.12449849,0.04788403,9.65342140,-0.02876214,-0.01597897,-0.00426106
1691763265542500,-0.02873042,0.20111294,9.92157173,-0.02982740,0.00213053,-0.00639159
1691763265544557,-0.19632454,-0.11013328,9.78270817,-0.01171791,0.01065264,-0.01065264
1691763265546487,-0.06224924,0.20111294,9.91678333,-0.00745685,0.00319579,-0.02024002
1691763265548554,-0.29688102,-0.01915361,9.95987892,-0.02556635,0.00852212,-0.01810949
1691763265550546,0.33518824,0.22984336,9.67257500,-0.04154531,0.01597897,-0.01384844
1691763265552489,0.03830723,0.20111294,9.89762974,-0.03834952,0.01384844,-0.01278317
1691763265554487,-0.44532153,-0.24899697,9.76834297,-0.02982740,0.00639159,-0.01384844
1691763265556465,0.22984336,0.21547815,9.64863300,-0.03515373,0.01065264,-0.01171791
1691763265558490,-0.18674773,0.06224924,10.00776291,-0.02982740,0.01704423,-0.00852212
1691763265560556,0.08140286,-0.04788403,9.54328823,-0.01704423,0.02343582,0.00000000
1691763265562435,0.19153613,0.40701428,9.90720654,-0.00426106,0.02343582,0.01491370
1691763265564513,-0.00478840,-0.18674773,9.60074902,-0.02556635,0.02130529,0.00958738
1691763265566551,0.23463176,0.15801731,9.61990261,-0.02450108,0.02450108,0.00426106
1691763265568528,-0.19153613,0.04309563,10.05085850,-0.03621899,0.01917476,0.00319579
1691763265570536,-0.03351882,-0.18195933,9.58638382,-0.04580637,0.00852212,0.00213053
1691763265572587,0.06703765,0.10055647,9.88805294,-0.06285060,0.00319579,-0.00426106
1691763265574526,-0.22984336,-0.14365210,9.95030212,-0.05858954,0.00000000,-0.00852212
1691763265576526,0.30166942,0.11971009,9.65820980,-0.06072007,-0.00852212,-0.01065264
1691763265578498,-0.08619126,0.16759412,10.08437729,-0.04261058,-0.01384844,-0.00852212
1691763265580592,0.07182605,-0.01915361,9.67736340,-0.04048005,-0.00319579,-0.01491370
1691763265582543,-0.09097967,0.06224924,10.02212811,-0.03728426,0.00213053,-0.00958738
1691763265584512,-0.13407530,-0.04788403,9.94551373,-0.04474111,0.00426106,-0.01384844
1691763265586469,0.08619126,0.04788403,9.71567059,-0.05006743,0.00745685,-0.00532632
1691763265588536,-0.14844051,0.00957681,10.04607010,-0.05539375,0.01171791,-0.01171791
1691763265590553,0.04309563,-0.05746084,9.73961258,-0.04580637,0.01384844,-0.00639159
1691763265592515,-0.02394202,0.06703765,9.87847614,-0.04261058,0.02237055,-0.00426106
1691763265594494,-0.14365210,-0.03351882,9.90720654,-0.04261058,0.03728426,0.00532632
1691763265596465,0.07661445,0.05746084,9.70130539,-0.03302320,0.04900216,0.00958738
1691763265598506,-0.17238252,0.03351882,9.94072533,-0.01491370,0.06817693,0.00426106
1691763265600539,0.08619126,0.12928689,9.56244183,-0.00639159,0.08522116,0.00426106
1691763265602483,-0.05746084,0.15322891,9.75397778,-0.00106526,0.10013486,0.01384844
1691763265604500,0.04309563,0.10055647,9.56723022,0.01384844,0.11717909,0.01491370
1691763265606514,0.03351882,0.19153613,9.56723022,0.00852212,0.12250541,0.01384844
1691763265608546,-0.28730419,-0.05746084,9.81622696,-0.00852212,0.12889700,0.00639159
1691763265610486,-0.08140286,-0.01436521,9.58159542,-0.01171791,0.12889700,0.00426106
1691763265612567,-0.30645782,0.05267244,10.03649330,-0.00426106,0.12783173,-0.00639159
1691763265614521,-0.28730419,-0.12449849,9.93593693,-0.01278317,0.12570120,-0.01065264
1691763265616505,0.34955344,0.29209262,9.61990261,-0.02024002,0.11717909,-0.00532632
1691763265618511,-0.14365210,0.10534488,10.06522369,-0.02982740,0.10226539,-0.01171791
1691763265620559,-0.08619126,-0.03830723,9.63905621,-0.03834952,0.09161274,-0.00639159
1691763265622526,-0.02873042,0.08619126,10.09874249,-0.05539375,0.07882957,-0.00639159
1691763265624493,-0.43095630,-0.31124622,9.99339771,-0.07456851,0.06072007,0.00319579
1691763265626531,0.35434186,-0.01915361,9.62947941,-0.09800433,0.03515373,-0.00213053
1691763265628500,-0.04309563,-0.09576806,10.14183807,-0.10546118,0.00958738,0.00213053
1691763265630486,0.02873042,-0.10534488,9.78270817,-0.10972223,-0.00532632,0.00213053
1691763265632523,0.49799395,0.22026655,9.90241814,-0.12144014,-0.01597897,0.01597897
1691763265634572,-0.25857377,-0.00478840,10.05564690,-0.12889700,-0.02130529,0.02769688
1691763265636501,0.38786069,-0.00957681,9.64863300,-0.11078750,-0.01917476,0.03195793
1691763265638500,-0.04309563,-0.05746084,10.12268448,-0.11078750,-0.00852212,0.02769688
1691763265640513,-0.02873042,-0.12928689,9.79228497,-0.12144014,0.01278317,0.01384844
1691763265642518,0.18195933,0.03830723,9.81622696,-0.11930962,0.02450108,0.01384844
1691763265644503,-0.12449849,-0.12928689,9.79707336,-0.11078750,0.02876214,0.00426106
1691763265646467,0.17717093,0.11492168,9.64384460,-0.09480853,0.01810949,-0.00213053
1691763265648506,0.02873042,0.21068975,10.08437729,-0.09267800,0.02450108,0.00106526
1691763265650509,-0.02873042,0.00000000,9.82580376,-0.08735169,0.01491370,-0.00426106
1691763265652505,0.05746084,0.00000000,9.78270817,-0.10013486,0.00639159,-0.00426106
1691763265654492,-0.24420857,0.08619126,10.07001209,-0.10226539,0.00532632,-0.00852212
1691763265656488,0.05746084,-0.12928689,9.69172859,-0.11824435,0.00000000,-0.00106526
1691763265658498,0.00000000,-0.01915361,9.99339771,-0.13528858,0.00106526,-0.02024002
1691763265660609,0.05267244,-0.07182605,9.91678333,-0.15659387,0.00213053,-0.01171791
1691763265662540,-0.05267244,-0.06224924,10.01255131,-0.17789917,0.00958738,-0.01065264
1691763265664535,-0.04788403,0.20590134,10.08916569,-0.16618125,0.00639159,-0.02237055
1691763265666502,0.09097967,-0.08619126,9.89284134,-0.15339808,0.00426106,-0.03302320
1691763265668557,-0.08619126,0.06703765,10.05085850,-0.15233281,-0.00426106,-0.02130529
1691763265670517,0.10534488,0.03830723,9.97424412,-0.14594123,-0.00213053,-0.01597897
1691763265672515,-0.13407530,-0.11971009,9.99818611,-0.11291803,-0.00319579,-0.01491370
1691763265674521,-0.02394202,0.27772740,10.02212811,-0.11291803,-0.00532632,-0.00639159
1691763265676476,0.11492168,-0.00957681,10.01733971,-0.10120012,0.00213053,-0.00106526
1691763265678711,-0.13886370,0.07661445,10.15141487,-0.08415589,0.01384844,-0.00213053
1691763265680502,0.13407530,-0.06224924,10.06043530,-0.09267800,0.01065264,-0.01278317
1691763265682630,-0.11971009,-0.05746084,10.18493366,-0.10652644,0.01491370,-0.00213053
1691763265684557,0.07182605,0.06224924,10.05564690,-0.09374327,0.02130529,-0.00213053
1691763265686494,0.12449849,-0.05746084,10.04607010,-0.08735169,0.02130529,0.00852212
1691763265688492,-0.23942018,0.12928689,10.19451046,-0.08948221,0.03408846,0.00000000
1691763265690485,0.04309563,0.09576806,9.95509052,-0.07882957,0.05326322,0.01065264
1691763265692602,-0.06224924,0.03351882,10.10353088,-0.07030746,0.07350325,0.00532632
1691763265694506,-0.17238252,0.28730419,9.95987892,-0.07456851,0.08628642,-0.00106526
1691763265696475,0.20590134,0.01915361,9.87847614,-0.07989483,0.09906960,0.00639159
1691763265698519,-0.22984336,0.19153613,10.10831928,-0.07243798,0.10865697,0.00532632
1691763265700583,-0.04309563,0.04788403,9.76355457,-0.06498113,0.10972223,0.00106526
1691763265702499,0.05746084,0.07661445,9.97903252,-0.06391586,0.10865697,-0.00213053
1691763265704515,-0.44532153,0.18195933,9.93114853,-0.06391586,0.10226539,0.00106526
1691763265706487,0.22026655,-0.03830723,9.77313137,-0.06391586,0.10013486,0.00213053
1691763265708553,-0.12928689,0.13407530,10.14183807,-0.05858954,0.09693906,-0.00426106
1691763265710521,-0.02873042,0.01436521,9.73003578,-0.05432849,0.09267800,-0.00532632
1691763265712496,0.32561144,0.12449849,9.92157173,-0.05113269,0.08948221,-0.02024002
1691763265714492,-0.33997664,0.27293900,9.97903252,-0.05326322,0.07989483,-0.00745685
1691763265716496,0.33518824,-0.06224924,9.67257500,-0.05645901,0.06178534,-0.00319579
1691763265718624,-0.07661445,0.12449849,10.13704967,-0.06817693,0.04261058,0.00426106
1691763265720550,-0.05746084,-0.08140286,9.77313137,-0.07350325,0.02343582,0.00213053
1691763265722666,0.29688102,-0.08140286,9.91199493,-0.08202536,0.00532632,0.01491370
1691763265724530,0.01915361,-0.01436521,9.81143856,-0.09374327,-0.00106526,0.01171791
1691763265726523,0.41659111,-0.14365210,9.69172859,-0.10333065,-0.00958738,0.01704423
1691763265728504,0.00957681,0.13886370,10.07001209,-0.09480853,-0.01171791,0.02343582
1691763265730524,0.04788403,0.07661445,9.74440098,-0.07456851,0.00426106,0.02450108
1691763265732518,0.13407530,-0.04309563,9.67257500,-0.05752428,0.01917476,0.01597897
1691763265734597,-0.18674773,0.34955344,9.88326454,-0.05965481,0.03621899,0.01491370
1691763265736513,0.04309563,-0.09097967,9.50498104,-0.05006743,0.05113269,0.01171791
1691763265738492,-0.13407530,0.08619126,9.81143856,-0.05752428,0.06391586,0.01704423
1691763265740577,0.02394202,0.07182605,9.60553741,-0.04900216,0.06391586,0.01810949
1691763265742544,-0.04309563,-0.04309563,9.58638382,-0.06285060,0.07989483,0.00852212
1691763265744536,-0.09097967,0.34476504,9.73003578,-0.05965481,0.08096009,0.00213053
1691763265746474,0.06224924,0.06224924,9.49540424,-0.04900216,0.06924219,-0.01278317
1691763265748636,-0.10534488,0.15801731,9.70130539,-0.04154531,0.06498113,-0.01491370
1691763265750557,0.08619126,0.04788403,9.53849983,-0.04474111,0.05965481,-0.02982740
1691763265752500,-0.12449849,-0.03830723,9.63905621,-0.03941479,0.05645901,-0.02450108
1691763265754627,-0.13886370,0.20111294,9.68215179,-0.02663161,0.04900216,-0.02343582
1691763265756476,0.06703765,0.00957681,9.55286503,-0.02663161,0.04474111,0.00213053
1691763265758541,-0.15801731,0.05746084,9.74918938,-0.00639159,0.04580637,-0.00106526
1691763265760540,0.23463176,0.12928689,9.59117222,0.01278317,0.05645901,-0.00106526
1691763265762528,0.02394202,0.02394202,9.66778660,0.01171791,0.06924219,-0.00426106
1691763265764503,-0.13407530,0.22505496,9.64863300,0.00213053,0.06817693,0.00000000
1691763265766484,0.11013328,0.03830723,9.54807663,0.00319579,0.06498113,0.00852212
1691763265768521,-0.34476504,-0.04309563,9.78270817,-0.01065264,0.05752428,0.01065264
1691763265770496,0.04788403,-0.01436521,9.54328823,-0.02024002,0.04687164,0.00319579
1691763265772497,0.06224924,-0.16759412,9.70130539,-0.02343582,0.04367584,0.00213053
1691763265774510,-0.35434186,0.01915361,9.73003578,-0.01597897,0.03408846,-0.00958738
1691763265776543,0.34476504,0.04788403,9.52892303,-0.02130529,0.02556635,-0.00213053
1691763265778530,-0.12449849,0.12928689,9.80186176,-0.01704423,0.01810949,0.00106526
1691763265780452,0.04788403,0.20590134,9.49540424,-0.01597897,0.01597897,0.00639159
1691763265782499,0.32561144,0.02873042,9.65820980,-0.01171791,0.01917476,-0.01065264
1691763265784495,-0.35434186,0.14365210,9.75397778,-0.01704423,0.02237055,0.00213053
1691763265786485,0.17717093,-0.05267244,9.56723022,-0.00426106,0.02663161,0.00106526
1691763265788501,-0.15322891,0.00000000,9.94072533,-0.00745685,0.02450108,0.00319579
1691763265790507,-0.06703765,0.15322891,9.66299820,-0.01491370,0.02130529,0.00000000
1691763265792544,0.33039984,-0.14844051,9.81143856,-0.01065264,0.02130529,-0.00745685
1691763265794531,-0.21068975,0.22505496,9.98860931,-0.00852212,0.01704423,-0.01491370
1691763265796490,0.26336220,0.11492168,9.66299820,-0.02024002,0.01278317,-0.01917476
1691763265798495,-0.03830723,0.00478840,10.08437729,-0.02343582,0.00532632,-0.00745685
1691763265800543,-0.11492168,0.17238252,9.76834297,-0.02343582,0.00639159,-0.00639159
1691763265802493,0.19632454,-0.25857377,9.75876617,-0.01491370,0.00639159,0.00213053
1691763265804511,-0.18195933,0.13407530,10.04128170,-0.01065264,0.00958738,0.00852212
1691763265806520,0.13886370,-0.03351882,9.65820980,-0.00639159,0.00639159,0.01491370
1691763265808512,0.04788403,-0.03351882,10.04128170,0.00106526,0.01171791,0.00532632
1691763265810564,0.02873042,0.42616791,9.89284134,0.00852212,0.00852212,0.00213053
1691763265812559,0.19153613,-0.15322891,9.81143856,0.00213053,0.00532632,0.00213053
1691763265814528,-0.15322891,0.27772740,10.13704967,0.00532632,0.01065264,-0.00106526
1691763265816509,-0.00478840,0.03830723,9.83538055,0.01171791,0.00532632,-0.00106526
1691763265818543,-0.09576806,-0.17717093,10.09395409,0.00000000,-0.00213053,-0.00532632
1691763265820523,-0.07182605,0.29209262,10.01733971,-0.00319579,-0.00639159,-0.00852212
1691763265822498,0.00957681,-0.28730419,9.86411095,0.00852212,-0.00106526,-0.00852212
1691763265824538,0.01436521,0.31124622,10.07480049,0.01171791,-0.00319579,-0.00426106
1691763265826525,0.13886370,0.19153613,9.88326454,0.00852212,0.00852212,-0.00852212
1691763265828566,-0.10534488,-0.14365210,9.95509052,0.01065264,0.01278317,-0.00852212
1691763265830526,0.08140286,0.46447513,9.89762974,0.02343582,0.02556635,-0.00745685
1691763265832587,-0.09097967,-0.20590134,9.85453415,0.01171791,0.03834952,0.00106526
1691763265834557,-0.11013328,0.11971009,9.93593693,-0.00106526,0.04793690,-0.00319579
1691763265836540,0.06703765,0.06224924,9.84495735,-0.00106526,0.04793690,-0.00213053
1691763265838523,-0.21068975,-0.17717093,9.98382092,0.00000000,0.05219796,-0.01704423
1691763265840519,0.16759412,0.35913026,9.89284134,-0.00639159,0.04154531,-0.02130529
1691763265842628,-0.01436521,-0.16280572,10.00297451,-0.00639159,0.02982740,-0.02130529
1691763265844550,-0.11013328,0.13886370,9.95987892,0.00639159,0.02130529,-0.00958738
1691763265846537,0.29688102,0.11971009,9.88805294,-0.00213053,0.01597897,-0.01065264
1691763265848498,-0.22026655,-0.06224924,10.02691650,0.01065264,0.00426106,0.00000000
1691763265850672,0.11013328,0.25378537,9.86411095,0.03089267,0.00532632,0.00106526
1691763265852533,0.08140286,-0.14365210,9.99818611,0.02556635,-0.00106526,-0.00213053
1691763265854496,-0.11492168,0.20111294,9.99339771,0.00958738,-0.00213053,-0.00745685
1691763265856474,0.36391866,0.07182605,9.96945572,0.01171791,0.00213053,-0.01491370
1691763265858540,-0.15322891,0.02394202,10.14662647,0.00426106,-0.00639159,-0.00852212
1691763265860615,0.12449849,0.30166942,9.92157173,0.00319579,-0.01491370,-0.01171791
1691763265862571,0.08140286,-0.14365210,10.09874249,0.00958738,-0.01384844,-0.00213053
1691763265864505,-0.25378537,0.26336220,9.98860931,0.01171791,-0.01704423,0.00000000
1691763265866501,0.31603462,0.04788403,9.93114853,0.01171791,-0.02130529,-0.00532632
1691763265868594,-0.12928689,0.01915361,10.13226128,0.00745685,-0.01384844,-0.00426106
1691763265870504,0.06224924,0.35434186,9.78270817,0.01810949,-0.00532632,0.00213053
1691763265872577,0.15801731,-0.09576806,10.00297451,0.02130529,0.00319579,-0.01384844
1691763265874509,-0.14365210,0.33997664,9.98382092,0.02769688,-0.00213053,-0.00852212
1691763265876507,0.20111294,-0.05746084,9.84016895,0.02024002,-0.00213053,-0.01491370
1691763265878541,-0.17717093,0.32561144,10.01255131,0.03089267,0.00213053,-0.01384844
1691763265880571,-0.03351882,0.23942018,9.78749657,0.02663161,-0.00852212,-0.02237055
1691763265882556,0.35913026,0.01915361,9.96945572,0.02556635,-0.02024002,-0.01384844
1691763265884567,0.67037648,0.26815060,9.63426781,0.00213053,-0.01491370,-0.02450108
1691763265886527,0.78050977,-0.37349546,9.66299820,-0.00532632,-0.00213053,-0.01278317
1691763265888573,0.49320555,0.26336220,9.79228497,-0.00213053,0.00426106,-0.01065264
1691763265890500,0.54108959,-0.17717093,9.61990261,0.00000000,0.01597897,-0.00426106
1691763265892517,0.26815060,-0.19632454,9.91678333,0.00213053,0.02237055,-0.02024002
1691763265894590,0.32561144,0.36870706,9.76834297,0.02130529,0.02556635,-0.01597897
1691763265896527,0.19153613,-0.41180268,9.83538055,0.03728426,0.01704423,-0.00745685
1691763265898532,0.12449849,0.39264908,9.91199493,0.03834952,0.01171791,0.00958738
1691763265900561,0.23463176,0.02394202,9.75397778,0.02876214,-0.00639159,0.00958738
1691763265902558,-0.03351882,-0.21547815,9.92636013,0.05006743,-0.02343582,0.01171791
1691763265904541,0.13407530,0.52193600,9.78749657,0.03621899,-0.03941479,0.01065264
1691763265906487,0.04309563,-0.34476504,9.78749657,0.03834952,-0.05006743,0.00852212
1691763265908576,0.01915361,0.33039984,9.81622696,0.04474111,-0.05539375,0.00213053
1691763265910572,0.22026655,0.04788403,9.75876617,0.04793690,-0.05965481,-0.00106526
1691763265912559,-0.04309563,-0.28730419,9.88805294,0.03515373,-0.05539375,-0.00639159
1691763265914507,0.19632454,0.42616791,9.81143856,0.03728426,-0.06285060,-0.00426106
1691763265916511,-0.11013328,-0.27772740,9.90720654,0.05113269,-0.05645901,-0.00319579
1691763265918551,-0.01436521,0.22026655,9.80665016,0.02450108,-0.05006743,-0.00852212
1691763265920522,0.24899697,0.02873042,9.85932255,0.02769688,-0.05858954,-0.00319579
1691763265922559,-0.30645782,-0.27772740,9.95030212,0.03408846,-0.05858954,-0.01171791
1691763265924500,0.23463176,0.41659111,9.80186176,0.03834952,-0.06072007,-0.02130529
1691763265926535,-0.08140286,-0.15801731,9.97424412,0.04261058,-0.06072007,-0.04154531
1691763265928548,-0.10055647,0.16280572,9.73482418,0.05539375,-0.05006743,-0.02450108
1691763265930504,0.31603462,0.13886370,9.73961258,0.05645901,-0.03621899,-0.02769688
1691763265932510,-0.25857377,-0.11492168,9.84495735,0.05006743,-0.03302320,-0.02556635
1691763265934575,0.12928689,0.29688102,9.58638382,0.04154531,-0.01810949,-0.01278317
1691763265936525,-0.12449849,-0.15801731,9.78749657,0.03515373,-0.00639159,0.00000000
1691763265938501,-0.22984336,0.16759412,9.64384460,0.03728426,-0.00532632,-0.00426106
1691763265940525,0.17717093,0.08619126,9.63426781,0.04580637,-0.00958738,-0.00639159
1691763265942513,-0.29209262,-0.16759412,9.88805294,0.04793690,-0.01171791,-0.00852212
1691763265944578,0.09576806,0.24420857,9.59117222,0.06924219,-0.02130529,-0.00852212
1691763265946508,0.11013328,-0.06224924,9.84016895,0.07030746,-0.04154531,-0.00426106
1691763265948502,-0.21547815,0.24899697,9.70609379,0.07243798,-0.05006743,-0.00213053
1691763265950557,0.27772740,0.13407530,9.61990261,0.05965481,-0.05539375,-0.00106526
1691763265952536,-0.07182605,-0.06703765,9.90720654,0.05219796,-0.05539375,-0.00958738
1691763265954552,-0.00478840,0.27772740,9.64384460,0.05113269,-0.07243798,-0.01491370
1691763265956486,0.00957681,-0.17238252,9.90720654,0.05006743,-0.05858954,-0.01171791
1691763265958573,-0.19632454,0.18195933,9.88805294,0.04474111,-0.05006743,-0.01384844
1691763265960622,0.01436521,-0.20111294,9.94072533,0.03834952,-0.05006743,0.00000000
1691763265962540,-0.10055647,-0.17717093,10.06522369,0.04261058,-0.05113269,-0.00532632
1691763265964505,0.04788403,0.34476504,9.77791977,0.03728426,-0.04154531,0.00745685
1691763265966506,0.06224924,-0.19153613,9.95509052,0.04261058,-0.04367584,0.00213053
1691763265968549,-0.15801731,0.29688102,9.92157173,0.04048005,-0.04900216,0.00426106
1691763265970555,0.06703765,0.07661445,9.75876617,0.04048005,-0.05219796,-0.01065264
1691763265972506,-0.17717093,-0.33997664,9.98382092,0.04367584,-0.05326322,-0.00213053
1691763265974514,0.09097967,0.37828386,9.75397778,0.04580637,-0.04261058,0.00000000
1691763265976507,-0.04309563,-0.37349546,9.88326454,0.04154531,-0.04261058,0.01171791
1691763265978525,-0.07661445,0.28251579,9.81143856,0.03834952,-0.04048005,0.00319579
1691763265980522,0.22984336,0.33518824,9.72045898,0.03621899,-0.04048005,0.00958738
1691763265982512,-0.16280572,-0.27772740,9.96945572,0.03941479,-0.04048005,0.01597897
1691763265984610,0.15801731,0.53151280,9.75876617,0.03302320,-0.05006743,0.01597897
1691763265986546,-0.13407530,-0.29209262,9.92636013,0.05326322,-0.05539375,0.00000000
1691763265988506,-0.19632454,0.04309563,9.87847614,0.06285060,-0.06178534,-0.00319579
1691763265990500,0.24420857,0.27293900,9.80186176,0.06711166,-0.06817693,-0.01491370
1691763265992549,-0.19632454,-0.44053310,9.95030212,0.07137272,-0.07350325,-0.02343582
1691763265994682,0.26336220,0.42137951,9.68694019,0.07776430,-0.06817693,-0.02343582
1691763265996486,0.00000000,-0.12928689,9.88326454,0.06391586,-0.05752428,-0.01171791
1691763265998632,-0.16759412,0.05267244,9.79228497,0.05432849,-0.05113269,-0.00319579
1691763266000539,-0.03830723,-0.14365210,9.93593693,0.05858954,-0.04048005,0.00106526
1691763266002513,-0.36391866,-0.39743748,9.94072533,0.05006743,-0.03728426,-0.00319579
1691763266004542,0.11013328,0.24899697,9.70609379,0.03302320,-0.03941479,0.00000000
1691763266006483,-0.06703765,-0.17717093,10.02212811,0.04580637,-0.04261058,0.00426106
1691763266008544,-0.28251579,-0.07182605,9.86889935,0.04793690,-0.04154531,0.00319579
1691763266010525,0.37349546,0.37828386,9.84974575,0.04474111,-0.04048005,-0.00106526
1691763266012563,-0.23463176,-0.23942018,10.08437729,0.04261058,-0.04261058,0.01065264
1691763266014529,0.11492168,0.27772740,9.73482418,0.06072007,-0.03621899,0.00532632
1691763266016487,0.09097967,-0.01915361,9.98382092,0.06924219,-0.02130529,0.00745685
1691763266018545,-0.36870706,-0.00478840,9.88805294,0.07882957,-0.01917476,0.00532632
1691763266020458,0.18674773,0.21547815,9.80665016,0.08202536,-0.01491370,0.01597897
1691763266022513,-0.19153613,-0.23463176,10.02212811,0.07350325,-0.00745685,0.00426106
1691763266024496,0.08140286,0.19153613,9.70609379,0.06604639,-0.01384844,0.02343582
1691763266026506,0.16280572,-0.07182605,9.97903252,0.05432849,-0.00958738,0.01810949
1691763266028510,-0.22505496,0.02394202,9.91678333,0.03941479,-0.01491370,0.01810949
1691763266030515,0.27772740,0.27772740,9.74440098,0.01704423,-0.02450108,-0.00106526
1691763266032505,-0.11013328,-0.22026655,9.98382092,0.01171791,-0.03302320,0.00639159
1691763266034572,0.00957681,0.11013328,9.64384460,0.02237055,-0.03941479,-0.00958738
1691763266036507,0.10534488,-0.15801731,9.84016895,0.03408846,-0.04580637,-0.00745685
1691763266038663,-0.14365210,-0.01436521,9.83538055,0.04261058,-0.04793690,-0.00852212
1691763266040513,0.06703765,-0.16759412,9.81143856,0.03302320,-0.04580637,-0.01597897
1691763266042529,-0.05267244,-0.17238252,9.86889935,0.02982740,-0.04687164,-0.01810949
1691763266044593,0.15801731,0.22984336,9.45230865,0.02769688,-0.04580637,-0.00319579
1691763266046512,0.07661445,-0.14844051,9.42836666,0.02876214,-0.05858954,0.00319579
1691763266048504,-0.04309563,-0.02873042,9.08838940,0.03195793,-0.06924219,0.00958738
1691763266050525,0.11971009,0.17238252,8.64306831,0.02663161,-0.06924219,0.00958738
1691763266052582,-0.11492168,-0.12928689,8.64306831,0.04048005,-0.10226539,0.01810949
1691763266054541,0.07182605,0.19153613,8.00142193,0.04261058,-0.11078750,0.02982740
1691763266056489,0.00957681,0.04309563,7.90086555,0.05219796,-0.14274544,0.01384844
1691763266058503,0.00957681,0.04788403,7.69975281,0.06498113,-0.14274544,0.00852212
1691763266060570,0.16759412,0.10055647,7.23527765,0.07456851,-0.15765914,0.00000000
1691763266062587,-0.05267244,-0.03830723,7.35977602,0.08735169,-0.18322548,-0.00639159
1691763266064550,0.06224924,0.02394202,7.00543404,0.07563377,-0.14381070,-0.00106526
1691763266066493,0.11971009,-0.02873042,6.81389809,0.07882957,-0.15659387,-0.03621899
1691763266068551,-0.10534488,0.01915361,6.90966606,0.08841695,-0.15339808,-0.00319579
1691763266070595,0.08140286,-0.04309563,6.60320807,0.07882957,-0.13102752,-0.01384844
1691763266072553,0.04788403,0.11013328,6.59363127,0.09267800,-0.13209279,-0.03515373
1691763266074504,-0.15801731,0.06224924,6.63672733,0.07669904,-0.11930962,0.00958738
1691763266076575,-0.00478840,0.03830723,6.44519091,0.08948221,-0.12463594,-0.00958738
1691763266078694,-0.10055647,0.22026655,6.45955610,0.09906960,-0.12037488,0.00106526
1691763266080519,-0.06703765,-0.13407530,6.48828650,0.07989483,-0.12037488,0.00639159
1691763266082620,-0.01915361,0.04309563,6.49786329,0.08415589,-0.12996227,-0.00213053
1691763266084538,-0.10534488,0.06224924,6.37815332,0.03408846,-0.14168017,0.02237055
1691763266086491,-0.02873042,-0.30166942,6.54095888,0.03941479,-0.13635385,0.01065264
1691763266088539,0.03830723,-0.14844051,6.55053568,0.00852212,-0.16192019,-0.00532632
1691763266090565,0.05746084,-0.14844051,6.38773012,-0.00426106,-0.17683390,-0.00532632
1691763266092506,-0.05746084,-0.30645782,6.63193893,0.01704423,-0.16298546,-0.00106526
1691763266094562,0.11971009,-0.17238252,6.55053568,-0.02024002,-0.15978967,0.00426106
1691763266096532,0.11492168,-0.13886370,6.44519091,-0.01065264,-0.16937704,0.00639159
1691763266098512,-0.12449849,-0.10055647,6.71334171,-0.01384844,-0.15446334,0.01171791
1691763266100499,0.08140286,-0.13886370,6.67503452,-0.01704423,-0.14913702,0.00213053
1691763266102555,0.03830723,0.01436521,6.56968927,-0.00532632,-0.13209279,-0.00426106
1691763266104512,-0.12928689,-0.00478840,6.72291851,-0.00319579,-0.12250541,-0.00426106
1691763266106494,-0.04788403,-0.18195933,6.77559090,-0.00426106,-0.11398330,-0.00958738
1691763266108541,-0.06224924,0.02394202,6.70855331,0.00000000,-0.08841695,-0.01065264
1691763266110535,-0.09097967,-0.02394202,6.83305168,0.00426106,-0.07882957,-0.02769688
1691763266112548,-0.06224924,-0.17238252,6.97191525,-0.00639159,-0.07243798,-0.02237055
1691763266114582,-0.11013328,-0.05267244,6.83784008,-0.00852212,-0.04580637,-0.01704423
1691763266116485,-0.07182605,0.00957681,6.98149204,-0.00639159,-0.03302320,-0.01597897
1691763266118605,-0.07182605,-0.10534488,7.15387487,-0.00639159,-0.01704423,-0.01597897
1691763266120567,-0.08619126,0.00478840,7.08683681,-0.00745685,-0.01704423,-0.00319579
1691763266122578,-0.07182605,0.08140286,7.20175886,-0.01597897,-0.01065264,-0.00426106
1691763266124541,-0.01915361,-0.02873042,7.23048925,-0.00745685,0.00319579,-0.00213053
1691763266126617,-0.04788403,0.13886370,7.29752684,-0.00745685,0.00319579,-0.00106526
1691763266128591,-0.09576806,0.13886370,7.35977602,-0.01704423,0.00426106,0.00319579
1691763266130558,0.00000000,0.06224924,7.29752684,-0.00745685,0.00852212,0.00000000
1691763266132536,-0.08140286,0.16759412,7.46033239,-0.00852212,0.01597897,0.00213053
1691763266134529,-0.06224924,0.15801731,7.47469759,-0.00958738,0.00852212,0.00000000
1691763266136616,0.00000000,0.25378537,7.38850641,-0.02450108,0.01384844,0.00745685
1691763266138544,-0.10055647,0.18674773,7.62313843,-0.02556635,0.02450108,0.00532632
1691763266140522,0.00957681,0.13886370,7.64229202,-0.01597897,0.01917476,0.00532632
1691763266142510,0.04309563,0.31603462,7.58961916,-0.02237055,0.02769688,-0.00852212
1691763266144581,-0.03830723,0.11492168,7.85298157,-0.02663161,0.03089267,-0.01171791
1691763266146565,0.00957681,0.05267244,7.84819317,-0.02556635,0.02982740,-0.01917476
1691763266148547,0.11013328,0.30166942,7.82425117,-0.01917476,0.02769688,-0.01065264
1691763266150561,-0.07182605,-0.01915361,8.15465069,-0.01917476,0.03195793,-0.00958738
1691763266152521,0.00957681,0.01436521,8.04930592,-0.01597897,0.03941479,-0.01704423
1691763266154719,0.15322891,0.28730419,8.03972912,-0.01171791,0.04474111,-0.01917476
1691763266156521,-0.22026655,-0.07182605,8.34139919,-0.02982740,0.05113269,-0.01597897
1691763266158619,-0.00957681,-0.01915361,8.13070869,-0.04687164,0.04474111,-0.00958738
1691763266160579,0.07661445,0.17717093,8.33182144,-0.05113269,0.04793690,-0.00426106
1691763266162679,-0.22026655,-0.27772740,8.52814674,-0.06391586,0.05858954,0.00639159
1691763266164550,0.08619126,0.00000000,8.29830265,-0.07669904,0.06498113,0.01384844
1691763266166494,0.02394202,0.01915361,8.61433792,-0.08309063,0.07350325,0.01278317
1691763266168517,-0.24899697,-0.28251579,8.59039593,-0.08628642,0.08309063,0.00532632
1691763266170550,0.05267244,0.27772740,8.48983955,-0.09054748,0.08415589,-0.00319579
1691763266172543,-0.09097967,0.07182605,8.80108547,-0.10013486,0.09374327,-0.00319579
1691763266174511,-0.21068975,-0.06224924,8.58560753,-0.08522116,0.10439591,0.00745685
1691763266176538,0.11971009,0.32561144,8.66701031,-0.08948221,0.10546118,0.01917476
1691763266178534,-0.16280572,-0.10055647,8.92079544,-0.08096009,0.11398330,0.01810949
1691763266180618,-0.15801731,0.06224924,8.78193188,-0.07989483,0.11611383,0.01917476
1691763266182514,0.04788403,0.09097967,8.95431423,-0.07563377,0.10759171,0.01171791
1691763266184500,-0.27772740,-0.17717093,8.98304462,-0.06711166,0.11611383,-0.00213053
1691763266186529,-0.07661445,0.18195933,8.88248825,-0.07137272,0.12570120,0.00213053
1691763266188659,0.02394202,-0.02394202,9.13148499,-0.07882957,0.11717909,-0.00639159
1691763266190566,-0.08619126,-0.00957681,9.02135181,-0.08415589,0.12144014,-0.00426106
1691763266192502,0.12928689,0.15801731,9.06923580,-0.07243798,0.12570120,-0.00639159
1691763266194532,0.09576806,-0.09097967,9.19852257,-0.06604639,0.11398330,-0.00639159
1691763266196501,0.06224924,0.23942018,9.09317780,-0.06711166,0.11717909,-0.00106526
1691763266198668,0.00478840,0.11013328,9.20331097,-0.06285060,0.12357067,0.00639159
1691763266200570,0.01436521,0.09097967,9.15063858,-0.06711166,0.12357067,-0.00319579
1691763266202553,-0.01436521,0.25857377,9.19373417,-0.05752428,0.12037488,0.00745685
1691763266204620,-0.09576806,-0.17717093,9.27034855,-0.06072007,0.13528858,0.01917476
1691763266206504,0.02873042,0.07661445,9.16979218,-0.05965481,0.14487596,0.01810949
1691763266208520,-0.15801731,-0.01915361,9.36611748,-0.05113269,0.14274544,0.01704423
1691763266210507,-0.09097967,-0.04309563,9.34217548,-0.05326322,0.14807175,0.00958738
1691763266212692,0.07661445,0.24420857,9.27513695,-0.05645901,0.15552860,0.00958738
1691763266214536,-0.12449849,-0.12449849,9.40921307,-0.05326322,0.16085494,0.00426106
1691763266216584,-0.17717093,-0.24899697,9.29907894,-0.04687164,0.16085494,0.00639159
1691763266218532,0.03351882,0.23463176,9.27992535,-0.05006743,0.15872440,0.00532632
1691763266220638,-0.27293900,-0.13407530,9.53371143,-0.04580637,0.15872440,0.01065264
1691763266222544,0.22026655,0.32561144,9.33738708,-0.04367584,0.15446334,-0.00319579
1691763266224562,0.14844051,0.35434186,9.51455784,-0.05645901,0.14807175,-0.00319579
1691763266226515,0.00478840,-0.22505496,9.32302189,-0.05432849,0.14381070,0.00319579
1691763266228555,0.31124622,0.21547815,9.39005947,-0.05645901,0.14274544,0.00958738
1691763266230579,-0.19632454,-0.35913026,9.61990261,-0.05539375,0.14168017,-0.00106526
1691763266232534,0.30645782,0.10055647,9.46667385,-0.05965481,0.13209279,0.00106526
1691763266234594,0.27772740,0.34476504,9.66778660,-0.05326322,0.12783173,-0.00426106
1691763266236491,-0.26336220,-0.33518824,9.71088219,-0.05219796,0.12570120,-0.00106526
1691763266238636,0.21547815,-0.02394202,9.46188545,-0.03621899,0.12037488,-0.00745685
1691763266240547,-0.20590134,-0.10055647,9.84974575,-0.04367584,0.11291803,0.00213053
1691763266242621,-0.25857377,-0.19153613,9.55286503,-0.04048005,0.11398330,-0.00106526
1691763266244531,0.07182605,0.18195933,9.93593693,-0.04154531,0.11824435,-0.00213053
1691763266246506,-0.12449849,-0.04309563,9.93114853,-0.02982740,0.11078750,-0.00213053
1691763266248558,0.16280572,0.04788403,9.52892303,-0.04687164,0.10546118,0.00319579
1691763266250539,0.14844051,0.20590134,9.98860931,-0.05006743,0.09374327,0.00958738
1691763266252513,0.13407530,0.00478840,9.59596062,-0.05539375,0.08522116,0.01065264
1691763266254545,0.32561144,0.17238252,9.69172859,-0.05219796,0.08309063,0.00852212
1691763266256534,-0.20590134,-0.00478840,9.89762974,-0.06711166,0.07776430,0.01278317
1691763266258522,0.12928689,-0.00957681,9.64384460,-0.05965481,0.07137272,0.02237055
1691763266260557,0.20590134,0.15322891,10.04607010,-0.04154531,0.06711166,0.01810949
1691763266262538,0.04788403,-0.01436521,9.69651699,-0.04900216,0.06924219,0.01384844
1691763266264581,0.34955344,0.27772740,9.76834297,-0.04900216,0.06924219,0.01810949
1691763266266532,-0.05267244,-0.07182605,10.18493366,-0.04580637,0.07350325,0.01171791
1691763266268547,0.05267244,0.01436521,9.70609379,-0.04048005,0.07456851,0.00106526
1691763266270569,0.13407530,0.08140286,9.95987892,-0.04048005,0.08309063,0.00213053
1691763266272538,-0.25378537,-0.05746084,10.00776291,-0.03515373,0.09374327,0.00639159
1691763266274650,0.11971009,0.17717093,9.69651699,-0.03834952,0.10333065,0.00426106
1691763266276505,-0.07661445,-0.08140286,10.08916569,-0.03302320,0.11504856,-0.00319579
1691763266278589,0.01915361,0.02394202,9.77791977,-0.03089267,0.10865697,0.00000000
1691763266280568,0.01915361,0.00957681,10.01255131,-0.04793690,0.10652644,-0.00213053
1691763266282697,-0.13886370,-0.10055647,10.06043530,-0.05965481,0.10865697,0.00426106
1691763266284543,-0.02873042,0.03351882,10.05085850,-0.05965481,0.09693906,-0.00958738
1691763266286494,-0.09576806,-0.11013328,10.17535686,-0.05645901,0.09267800,-0.00532632
1691763266288601,0.20590134,0.27293900,9.89762974,-0.05219796,0.09161274,-0.00639159
1691763266290541,-0.01915361,0.09576806,10.05564690,-0.04474111,0.08522116,-0.00106526
1691763266292538,-0.15801731,-0.10055647,10.07958889,-0.02876214,0.07882957,-0.00426106
1691763266294558,0.21547815,0.32561144,9.90241814,-0.01597897,0.08522116,0.00000000
1691763266296557,-0.12449849,-0.13886370,10.18493366,-0.01704423,0.09161274,-0.00319579
1691763266298521,0.22984336,0.06703765,9.88326454,-0.02556635,0.08841695,-0.00639159
1691763266300513,0.03830723,0.17717093,10.07001209,-0.01810949,0.09054748,-0.00426106
1691763266302524,-0.18674773,-0.14844051,10.02691650,-0.01065264,0.08735169,-0.00213053
1691763266304615,0.26815060,0.28730419,9.91678333,-0.01917476,0.09054748,0.01704423
1691763266306503,-0.27293900,-0.16759412,10.18972206,-0.02876214,0.09267800,0.01597897
1691763266308548,0.15322891,-0.07182605,9.85453415,-0.03089267,0.08202536,0.02556635
1691763266310536,-0.29209262,-0.06703765,10.17056847,-0.04580637,0.08522116,0.01810949
1691763266312535,-0.24899697,-0.24420857,10.06043530,-0.05645901,0.09054748,0.02130529
1691763266314655,0.07182605,0.12449849,10.12268448,-0.04580637,0.08309063,0.01171791
1691763266316517,-0.20111294,-0.00478840,10.19929886,-0.04367584,0.08309063,0.00532632
1691763266318518,0.15322891,-0.01436521,9.77791977,-0.04687164,0.08735169,-0.00745685
1691763266320511,0.11492168,0.24899697,10.09395409,-0.04474111,0.08522116,-0.00639159
1691763266322619,0.16280572,-0.02873042,9.81622696,-0.03621899,0.07456851,-0.00319579
1691763266324527,0.30166942,0.12449849,9.90720654,-0.04048005,0.06498113,-0.00958738
1691763266326522,-0.15801731,0.08619126,10.29985619,-0.03941479,0.05965481,-0.00639159
1691763266328616,0.14844051,-0.09097967,9.84016895,-0.02982740,0.05539375,0.00106526
1691763266330581,-0.18674773,0.10534488,10.35252857,-0.01597897,0.05006743,0.00213053
1691763266332579,-0.11971009,0.03830723,10.15141487,-0.01597897,0.04048005,0.00639159
1691763266334547,0.33518824,0.12928689,9.92157173,-0.02663161,0.03941479,0.00426106
1691763266336496,-0.21068975,0.06703765,10.34295177,-0.01384844,0.04261058,-0.00213053
1691763266338587,0.05267244,-0.14365210,9.89284134,-0.00745685,0.04261058,-0.01278317
1691763266340639,0.18674773,0.12449849,10.17056847,-0.02450108,0.04474111,-0.01171791
1691763266342523,-0.02873042,-0.05267244,9.87847614,-0.02769688,0.04793690,-0.00213053
1691763266344578,0.08140286,0.10534488,10.06522369,-0.02024002,0.04580637,-0.00958738
1691763266346528,-0.17717093,0.00478840,10.19451046,-0.01704423,0.04580637,-0.00532632
1691763266348545,0.11971009,-0.08140286,9.91199493,-0.01704423,0.04900216,-0.00213053
1691763266350553,-0.11971009,0.16280572,10.21366405,-0.01810949,0.04367584,0.00852212
1691763266352542,0.09576806,0.09576806,9.86889935,-0.00958738,0.03941479,0.00639159
