timestamp,accel_x,accel_y,accel_z,gyro_x,gyro_y,gyro_z
1691757109043308,-0.59376204,0.02873042,9.85453415,-0.00426106,0.00426106,0.00532632
1691757109045379,-0.59376204,-0.03351882,9.83059216,-0.00106526,0.00106526,0.01384844
1691757109047339,-0.57460839,0.06703765,9.81622696,-0.00639159,0.00319579,0.01810949
1691757109049300,-0.58897364,0.01915361,9.84974575,-0.00958738,0.00106526,0.00639159
1691757109051325,-0.60812724,0.07661445,9.79707336,-0.00213053,-0.00319579,-0.01597897
1691757109053359,-0.62728083,0.15322891,9.78270817,0.00000000,-0.00319579,-0.02876214
1691757109055361,-0.62728083,0.05746084,9.84974575,0.00745685,0.00426106,-0.02663161
1691757109057314,-0.58418524,0.03830723,9.81143856,0.00958738,0.00958738,-0.01171791
1691757109059271,-0.55066639,-0.00957681,9.79228497,0.00958738,0.00319579,0.00958738
1691757109061309,-0.58418524,0.04788403,9.84974575,-0.00639159,-0.00319579,0.02024002
1691757109063291,-0.65601128,0.00478840,9.85453415,-0.00213053,0.00000000,0.01704423
1691757109065435,-0.61770403,0.04309563,9.78270817,0.00106526,0.00000000,0.00106526
1691757109067273,-0.64643449,0.04788403,9.87847614,0.00426106,0.00106526,-0.02237055
1691757109069261,-0.65122288,0.00000000,9.85932255,-0.00426106,0.00958738,-0.03089267
1691757109071307,-0.65122288,0.04309563,9.81143856,-0.00106526,0.00639159,-0.02556635
1691757109073371,-0.59376204,0.13886370,9.81622696,-0.00319579,0.00213053,-0.01171791
1691757109075305,-0.60812724,0.03830723,9.85932255,0.00106526,0.00852212,0.01171791
1691757109077370,-0.58418524,0.04788403,9.79707336,-0.00745685,0.00000000,0.03941479
1691757109079388,-0.63206923,0.04788403,9.84016895,0.01704423,0.00106526,-0.03302320
1691757109081410,-0.67995328,0.05267244,9.92636013,0.02450108,-0.00106526,-0.10972223
1691757109083271,-0.59855044,0.10534488,9.88805294,0.01704423,-0.00639159,-0.11078750
1691757109085331,-0.59855044,0.08619126,9.86411095,-0.00319579,0.00106526,-0.03515373
1691757109087340,-0.56981999,0.03351882,9.85932255,-0.02556635,0.00639159,0.05006743
1691757109089317,-0.61291564,0.01436521,9.93593693,-0.01704423,0.00532632,-0.02237055
1691757109091401,-0.67037648,0.11492168,9.93114853,0.01171791,-0.00532632,-0.02130529
1691757109093284,-0.61291564,0.18195933,9.90241814,0.00319579,-0.00852212,-0.05326322
1691757109095377,-0.66079968,0.25378537,9.84495735,-0.01597897,-0.03515373,-0.09267800
1691757109097290,-0.83318222,0.05267244,9.94072533,-0.02237055,-0.05432849,-0.01065264
1691757109099259,-0.94331545,-0.01915361,9.92636013,-0.03302320,-0.07030746,-0.00532632
1691757109101271,-0.76135612,0.17238252,9.85453415,0.02024002,-0.10013486,-0.03302320
1691757109103351,-0.96725750,0.07661445,10.02212811,-0.01384844,-0.15978967,-0.03408846
1691757109105323,-1.12527478,-0.07661445,9.95509052,-0.01704423,-0.21944447,-0.01810949
1691757109107334,-0.92416185,0.09097967,9.80665016,-0.00426106,-0.24501082,-0.00319579
1691757109109277,-0.89064306,0.18195933,10.01255131,-0.00213053,-0.34940675,-0.01171791
1691757109111371,-0.68953007,0.19153613,9.88805294,-0.00852212,-0.42077947,-0.02556635
1691757109113292,-0.67037648,0.06703765,10.03170490,-0.02024002,-0.49641323,-0.01917476
1691757109115276,-0.61291564,-0.01915361,10.09874249,-0.02876214,-0.57204700,-0.03089267
1691757109117302,-0.23463176,0.07661445,9.94072533,-0.04261058,-0.61678809,-0.04900216
1691757109119255,-0.43095630,-0.17717093,10.25675964,-0.03728426,-0.68496501,-0.04900216
1691757109121366,-0.09576806,-0.01915361,10.33816338,-0.03834952,-0.71053135,-0.06072007
1691757109123321,-0.05267244,0.08140286,10.35731697,-0.02237055,-0.69029135,-0.07350325
1691757109125309,-0.23942018,0.04788403,10.47223854,-0.01384844,-0.70520508,-0.06285060
1691757109127290,0.03830723,0.11971009,10.66856289,0.01065264,-0.70627034,-0.05326322
1691757109129287,-0.27772740,-0.07661445,11.01811600,0.02556635,-0.64448500,-0.07456851
1691757109131276,-0.08619126,0.18195933,10.98459721,0.00213053,-0.65513760,-0.06285060
1691757109133282,-0.12449849,0.03830723,11.26711273,-0.01065264,-0.63276708,-0.04793690
1691757109135343,-0.25857377,-0.10055647,11.56399441,-0.00106526,-0.62104917,-0.03302320
1691757109137336,-0.00957681,0.08140286,11.65018559,-0.02130529,-0.61785334,-0.06498113
1691757109139270,-0.33997664,-0.17717093,11.98058510,-0.01810949,-0.61146176,-0.05006743
1691757109141278,0.00000000,0.09576806,11.99016190,-0.00319579,-0.60507017,-0.05965481
1691757109143304,-0.11013328,-0.03830723,12.22000504,-0.03302320,-0.59228700,-0.05113269
1691757109145367,-0.12449849,0.00478840,12.33971596,-0.03515373,-0.57524282,-0.05006743
1691757109147271,0.10534488,0.08140286,12.44984913,-0.02663161,-0.57843858,-0.04474111
1691757109149252,-0.33039984,-0.08619126,12.69884586,-0.02237055,-0.58269966,-0.05539375
1691757109151273,0.05267244,0.19632454,12.56955910,-0.02343582,-0.53689325,-0.06178534
1691757109153334,-0.18195933,-0.19632454,12.77546024,-0.02663161,-0.50706589,-0.05432849
1691757109155285,-0.13886370,0.01915361,12.77546024,-0.02130529,-0.50813115,-0.05006743
1691757109157429,0.03830723,0.08140286,12.89517021,-0.00426106,-0.47830373,-0.04154531
1691757109159294,-0.15322891,0.08140286,12.95741940,-0.02982740,-0.42290998,-0.03728426
1691757109161340,0.13407530,0.15801731,12.97178459,-0.03621899,-0.42823631,-0.04048005
1691757109163339,-0.26815060,-0.19632454,13.16332054,-0.02130529,-0.41971418,-0.03834952
1691757109165286,-0.06703765,0.17238252,13.07234097,-0.01917476,-0.39734364,-0.04154531
1691757109167300,0.03830723,0.00957681,13.18726254,-0.03728426,-0.41012681,-0.04900216
1691757109169268,-0.08619126,0.00478840,13.19683933,-0.04474111,-0.41332260,-0.03728426
1691757109171429,0.09576806,0.10055647,13.19683933,-0.04154531,-0.43036684,-0.03408846
1691757109173373,-0.13886370,-0.11971009,13.30218506,-0.05645901,-0.41225734,-0.04474111
1691757109175289,0.18195933,0.15322891,13.23035812,-0.05752428,-0.39627838,-0.02876214
1691757109177314,-0.08619126,-0.09097967,13.34049225,-0.05752428,-0.41758364,-0.02556635
1691757109179321,-0.02394202,0.22505496,13.22078133,-0.05432849,-0.40799627,-0.04154531
1691757109181321,0.02873042,0.02394202,13.26387787,-0.04687164,-0.40053943,-0.03941479
1691757109183307,-0.10055647,-0.05746084,13.20162773,-0.02663161,-0.41332260,-0.04900216
1691757109185338,0.08619126,0.16280572,13.09149456,-0.00852212,-0.39840889,-0.04687164
1691757109187357,-0.20111294,-0.03351882,13.07234097,0.02024002,-0.40053943,-0.04474111
1691757109189297,0.11971009,0.30166942,12.84249783,0.01384844,-0.36964676,-0.04687164
1691757109191279,-0.07182605,-0.07661445,12.91432381,0.01597897,-0.32916671,-0.04474111
1691757109193361,-0.02873042,0.07182605,12.66532707,0.01810949,-0.30999196,-0.03515373
1691757109195369,0.02873042,0.17717093,12.54082870,0.02024002,-0.25779399,-0.03834952
1691757109197361,-0.26815060,-0.11971009,12.47857952,0.00852212,-0.24288028,-0.03089267
1691757109199258,0.12449849,0.15801731,12.21042824,0.00213053,-0.24394555,-0.03728426
1691757109201296,-0.21068975,-0.16280572,12.30619717,-0.00639159,-0.25459820,-0.02982740
1691757109203544,-0.03351882,0.13886370,11.95664310,-0.01810949,-0.27377295,-0.05006743
1691757109205339,-0.13886370,-0.21068975,11.92791271,-0.02130529,-0.30679616,-0.04367584
1691757109207310,-0.11013328,0.04788403,11.78904915,-0.01384844,-0.33342776,-0.04687164
1691757109209273,0.29209262,0.29688102,11.65976238,-0.00745685,-0.37603834,-0.03408846
1691757109211332,-0.11492168,-0.09097967,11.72679996,0.00319579,-0.39095205,-0.03515373
1691757109213353,0.19153613,0.13886370,11.45386124,0.03195793,-0.41012681,-0.02769688
1691757109215297,0.09097967,0.20590134,11.54962921,0.04580637,-0.41545314,-0.03089267
1691757109217315,-0.03351882,0.04309563,11.46343803,0.04580637,-0.42504051,-0.04474111
1691757109219275,0.14844051,0.19153613,11.31020927,0.04580637,-0.42397526,-0.05752428
1691757109221335,-0.19153613,0.03351882,11.39161205,0.02876214,-0.39308259,-0.05752428
1691757109223347,0.06703765,0.18195933,11.10909557,0.00319579,-0.38988680,-0.05858954
1691757109225416,-0.11013328,0.12928689,11.22880554,-0.00213053,-0.34727621,-0.04687164
1691757109227304,-0.09576806,0.14365210,10.79784966,0.00319579,-0.28762141,-0.03621899
1691757109229332,-0.03830723,0.32561144,10.78348446,0.00958738,-0.26738137,-0.03834952
1691757109231311,-0.37349546,0.06703765,10.94150162,0.01917476,-0.25033715,-0.03408846
1691757109233278,-0.11013328,0.08619126,10.51533413,0.04048005,-0.23542345,-0.03195793
1691757109235376,-0.36870706,0.14365210,10.60152531,0.03195793,-0.23968449,-0.02982740
1691757109237393,-0.34476504,-0.02873042,10.56321812,0.04048005,-0.24714135,-0.02663161
1691757109239315,-0.08619126,0.18674773,10.24239445,0.05432849,-0.24607609,-0.00639159
1691757109241327,-0.29688102,0.12449849,10.43393135,0.06711166,-0.26418558,-0.01917476
1691757109243325,-0.10534488,0.12449849,10.24718285,0.06711166,-0.27803403,-0.04048005
1691757109245373,-0.06703765,0.32082301,10.19451046,0.07350325,-0.26098979,-0.02982740
1691757109247309,-0.27293900,0.07182605,10.34774017,0.08309063,-0.25885925,-0.03408846
1691757109249286,0.06224924,0.18674773,10.05085850,0.08948221,-0.25566345,-0.04687164
1691757109251283,-0.16759412,0.18195933,10.24239445,0.08628642,-0.24607609,-0.04474111
1691757109253352,-0.26336220,-0.08619126,10.23760605,0.07989483,-0.22370553,-0.03621899
1691757109255336,-0.09576806,0.09576806,10.00297451,0.07882957,-0.17576863,-0.03515373
1691757109257285,-0.36391866,0.05267244,10.17535686,0.08096009,-0.15020229,-0.01810949
1691757109259254,-0.28251579,0.00000000,9.91678333,0.08735169,-0.10865697,0.00000000
1691757109261323,-0.24899697,0.29209262,9.94551373,0.10546118,-0.03834952,0.01597897
1691757109263296,-0.26815060,0.16759412,10.03649330,0.12783173,0.01491370,0.00532632
1691757109265282,-0.12928689,0.27293900,9.70130539,0.14274544,0.05113269,0.00852212
1691757109267313,-0.22984336,0.44532153,9.86889935,0.16192019,0.06604639,0.00213053
1691757109269295,-0.35434186,0.06703765,9.93114853,0.16298546,0.11930962,-0.01384844
1691757109271316,-0.19153613,0.31124622,9.67736340,0.15765914,0.14061491,-0.01278317
1691757109273288,-0.21068975,0.17238252,9.76834297,0.16085494,0.11504856,-0.02556635
1691757109275280,-0.30166942,-0.11013328,9.69172859,0.17470337,0.12463594,-0.01810949
1691757109277353,-0.10534488,0.22984336,9.58159542,0.14700650,0.12250541,-0.02556635
1691757109279343,-0.17717093,-0.08619126,9.84016895,0.13209279,0.11611383,-0.01065264
1691757109281341,-0.11971009,-0.16759412,9.64863300,0.12783173,0.08841695,-0.00532632
1691757109283293,0.08140286,0.08140286,9.63905621,0.11291803,0.02237055,-0.01917476
1691757109285467,-0.07661445,-0.13886370,9.91199493,0.09693906,-0.00639159,-0.02343582
1691757109287355,0.17717093,-0.00957681,9.66778660,0.08202536,-0.09480853,-0.02450108
1691757109289272,0.11971009,-0.04309563,9.81143856,0.06924219,-0.14807175,-0.01917476
1691757109291289,0.09576806,-0.07661445,9.98382092,0.03834952,-0.19068234,-0.02024002
1691757109293295,0.33518824,0.03830723,9.83538055,0.00639159,-0.21518342,-0.02663161
1691757109295367,0.13407530,-0.09576806,10.00297451,-0.02450108,-0.24288028,-0.02237055
1691757109297321,0.22026655,0.13407530,9.87368774,-0.04261058,-0.25140241,-0.03195793
1691757109299279,0.11013328,0.04788403,9.80665016,-0.02876214,-0.23329291,-0.01704423
1691757109301351,0.00000000,0.07182605,9.88326454,-0.02663161,-0.21944447,-0.03195793
1691757109303343,0.11013328,0.12928689,9.68215179,-0.01171791,-0.18748654,-0.01597897
1691757109305365,-0.16759412,-0.05267244,9.79707336,-0.01171791,-0.10439591,-0.03195793
1691757109307299,-0.17238252,0.11971009,9.74918938,0.01491370,-0.06604639,-0.02556635
1691757109309258,-0.21068975,0.11492168,9.62947941,0.03302320,-0.01171791,-0.02876214
1691757109311367,-0.33997664,0.10055647,9.87368774,0.04048005,0.02769688,-0.01917476
1691757109313322,-0.18674773,0.14365210,9.80665016,0.03302320,0.04261058,-0.01065264
1691757109315351,-0.22505496,0.05267244,9.79228497,0.03621899,0.05113269,-0.02450108
1691757109317354,-0.25378537,0.09576806,9.97424412,0.04367584,0.03195793,-0.01917476
1691757109319256,-0.09576806,0.20111294,9.79707336,0.02982740,0.00639159,-0.01384844
1691757109321313,-0.04788403,0.11492168,9.88805294,0.02769688,-0.03195793,-0.01065264
1691757109323304,-0.03351882,0.14365210,9.99339771,0.02663161,-0.03941479,-0.02024002
1691757109325295,0.10055647,0.22984336,9.88326454,0.00852212,-0.04687164,-0.02237055
1691757109327298,0.04788403,0.04309563,10.09395409,-0.00852212,-0.07030746,-0.01810949
1691757109329315,0.08140286,0.15322891,10.01255131,-0.01171791,-0.04580637,0.00000000
1691757109331289,0.01915361,0.11971009,9.89284134,-0.00213053,-0.01065264,-0.00532632
1691757109333282,-0.12449849,0.03351882,10.13226128,-0.01171791,0.05326322,-0.01171791
1691757109335341,-0.10055647,0.13886370,9.95987892,-0.01065264,0.10972223,0.00106526
1691757109337328,-0.20590134,-0.01436521,9.93593693,0.00319579,0.15978967,0.00319579
1691757109339315,-0.24420857,0.16280572,10.00297451,0.02876214,0.20772657,-0.00958738
1691757109341309,-0.22026655,0.26815060,9.77791977,0.04367584,0.26312032,-0.02024002
1691757109343412,-0.26336220,0.22505496,9.89284134,0.05006743,0.28655612,-0.01171791
1691757109345370,-0.26815060,0.14365210,9.84016895,0.06924219,0.27483824,-0.01491370
1691757109347317,-0.19153613,0.11971009,9.55765343,0.09161274,0.25140241,-0.01810949
1691757109349298,-0.26815060,0.14365210,9.77313137,0.08735169,0.24501082,-0.02343582
1691757109351285,-0.15322891,0.09576806,9.71567059,0.08309063,0.22050974,-0.01597897
1691757109353414,0.04788403,0.14844051,9.54328823,0.06817693,0.18002969,-0.00958738
1691757109355309,-0.09576806,0.08619126,9.75876617,0.06498113,0.16511598,-0.01491370
1691757109357304,0.11492168,0.18195933,9.66778660,0.06498113,0.14913702,-0.01171791
1691757109359323,0.07182605,0.16280572,9.72524738,0.06817693,0.13528858,-0.02024002
1691757109361394,-0.05746084,0.13886370,9.79707336,0.06817693,0.13315806,-0.01491370
1691757109363304,0.13886370,0.28251579,9.60074902,0.05006743,0.11717909,-0.02237055
1691757109365298,-0.07182605,0.13407530,9.88326454,0.03941479,0.12783173,-0.01384844
1691757109367285,-0.00478840,0.21068975,9.83538055,0.03195793,0.13209279,-0.00958738
1691757109369324,0.08140286,0.12928689,9.72524738,0.03621899,0.14274544,-0.01384844
1691757109371297,-0.07661445,0.13886370,9.86889935,0.02982740,0.13528858,0.00000000
1691757109373302,0.05746084,0.13886370,9.77791977,0.04154531,0.14381070,-0.00426106
1691757109375284,-0.08619126,-0.10534488,9.89762974,0.05006743,0.15126754,0.00000000
1691757109377381,-0.00957681,-0.03830723,9.91199493,0.04261058,0.13422331,0.00000000
1691757109379306,0.12449849,0.11492168,9.72524738,0.03941479,0.12463594,-0.00319579
1691757109381295,-0.12928689,-0.03351882,9.89762974,0.03728426,0.11291803,0.00319579
1691757109383299,0.09576806,0.13407530,9.81622696,0.04261058,0.10759171,-0.00745685
1691757109385460,0.01915361,0.06703765,9.86889935,0.03834952,0.10013486,-0.01065264
1691757109387412,-0.15801731,0.01915361,9.92636013,0.03089267,0.09054748,-0.01171791
1691757109389284,0.04309563,0.14844051,9.77313137,0.02343582,0.11611383,-0.00958738
1691757109391282,-0.10055647,-0.15322891,9.90241814,0.01384844,0.12463594,-0.00745685
1691757109393302,0.00000000,0.04788403,9.81143856,-0.00213053,0.13102752,-0.00745685
1691757109395331,0.06224924,0.18195933,9.79707336,-0.01491370,0.15126754,-0.00639159
1691757109397484,-0.10534488,-0.08140286,9.94072533,0.00213053,0.17470337,-0.00852212
1691757109399266,0.05746084,0.18674773,9.72045898,0.00745685,0.18961707,-0.00745685
1691757109401296,-0.10055647,0.08140286,9.91199493,0.00532632,0.16511598,-0.02237055
1691757109403352,-0.21068975,0.01915361,10.01733971,0.00426106,0.16724652,-0.02982740
1691757109405340,-0.03830723,0.30166942,9.82101536,0.00106526,0.16724652,-0.02024002
1691757109407285,-0.12928689,0.04788403,9.97903252,0.00106526,0.13102752,-0.02024002
1691757109409260,-0.00957681,0.16280572,9.90241814,-0.00106526,0.10972223,-0.01917476
1691757109411318,0.06224924,0.18674773,9.89284134,0.00213053,0.10013486,-0.02450108
1691757109413427,-0.03830723,-0.07661445,10.09395409,0.00958738,0.08841695,-0.01704423
1691757109415291,0.20590134,0.17717093,9.89284134,0.04367584,0.05432849,-0.01171791
1691757109417283,0.03351882,0.06703765,10.05564690,0.05326322,0.04474111,-0.01384844
1691757109419292,0.00957681,-0.03830723,10.07958889,0.03515373,0.05858954,-0.02237055
1691757109421331,0.20111294,0.21068975,9.97424412,0.01384844,0.05645901,-0.02982740
1691757109423283,-0.03830723,-0.00478840,10.12747288,0.00426106,0.03621899,-0.03089267
1691757109425424,0.09576806,0.09097967,9.95987892,0.00639159,0.02876214,-0.02982740
1691757109427307,0.05746084,0.14844051,10.09395409,0.01171791,0.03728426,-0.02982740
1691757109429323,-0.08619126,-0.04788403,10.15620327,-0.00106526,0.03941479,-0.02024002
1691757109431285,0.12928689,0.23942018,9.89762974,-0.00532632,0.03089267,-0.01810949
1691757109433292,-0.07661445,0.01436521,10.07958889,-0.01065264,0.03302320,-0.00639159
1691757109435323,0.03351882,-0.02394202,9.98860931,0.00639159,0.03195793,-0.00532632
1691757109437365,0.14365210,0.25378537,9.96466732,0.01491370,0.02982740,0.00000000
1691757109439286,-0.07661445,-0.03351882,10.15141487,0.01704423,0.02343582,-0.01278317
1691757109441336,-0.05746084,-0.06224924,9.99339771,0.00639159,0.02024002,-0.00745685
1691757109443304,-0.05746084,0.17717093,10.05564690,0.00319579,0.04154531,-0.01278317
1691757109445359,0.12449849,-0.06224924,10.01733971,0.00426106,0.06178534,-0.00745685
1691757109447298,0.01915361,0.01915361,10.14183807,-0.00106526,0.08735169,-0.01491370
1691757109449262,-0.16280572,-0.25378537,10.24239445,-0.00106526,0.10013486,-0.00852212
1691757109451284,-0.03830723,-0.00478840,9.98382092,0.01917476,0.09587380,-0.01384844
1691757109453341,-0.25378537,-0.13886370,10.18972206,0.02130529,0.09693906,-0.00958738
1691757109455324,-0.11492168,-0.21547815,10.03170490,0.00532632,0.09161274,-0.00745685
1691757109457299,0.06703765,0.02394202,9.86411095,-0.00213053,0.07669904,-0.00106526
1691757109459257,-0.05746084,-0.19632454,10.07480049,0.00532632,0.04367584,-0.00852212
1691757109461308,0.15322891,0.00000000,9.85932255,0.00106526,0.03941479,-0.00745685
1691757109463451,0.07661445,0.07182605,9.94551373,-0.02024002,0.02130529,-0.01384844
1691757109465287,0.01436521,-0.09576806,9.96945572,-0.04261058,0.00958738,-0.01384844
1691757109467288,0.07182605,0.05746084,9.76355457,-0.04367584,0.01065264,-0.01810949
1691757109469262,-0.09576806,-0.09097967,10.04607010,-0.04367584,0.01065264,-0.01597897
1691757109471307,0.04309563,-0.06224924,9.90720654,-0.04474111,0.00958738,-0.00106526
1691757109473375,0.01436521,0.10534488,9.80186176,-0.02663161,0.01278317,0.00745685
1691757109475280,-0.04309563,0.11971009,9.97424412,-0.01065264,0.01810949,-0.00213053
1691757109477339,0.17238252,0.21547815,9.80186176,-0.00319579,0.01917476,-0.00852212
1691757109479372,0.03351882,0.12928689,9.95030212,-0.01384844,0.02024002,-0.00213053
1691757109481315,0.08619126,0.04788403,9.90241814,-0.02876214,0.00532632,0.00213053
1691757109483283,0.06703765,0.03351882,9.78270817,-0.02663161,-0.00426106,-0.00213053
1691757109485332,-0.08140286,-0.07661445,10.03170490,-0.02237055,-0.00852212,0.00000000
1691757109487338,0.14844051,-0.02873042,9.90241814,-0.01917476,-0.02556635,-0.01065264
1691757109489331,0.04788403,0.01915361,9.92636013,-0.03621899,-0.04900216,-0.02556635
1691757109491283,0.07182605,0.15801731,10.01255131,-0.03515373,-0.06178534,-0.03195793
1691757109493281,0.20111294,0.22026655,9.87847614,-0.03728426,-0.06391586,-0.02876214
1691757109495373,-0.00478840,0.06224924,10.02691650,-0.03834952,-0.06391586,-0.02130529
1691757109497306,0.05267244,0.04788403,9.92636013,-0.03195793,-0.06178534,-0.01704423
1691757109499321,-0.03830723,-0.03830723,9.92636013,-0.02556635,-0.04793690,-0.00852212
1691757109501352,-0.09097967,-0.02394202,10.11310768,-0.02237055,-0.02450108,-0.00532632
1691757109503387,0.04309563,0.07661445,9.94551373,-0.02450108,-0.01171791,-0.00745685
1691757109505318,-0.10534488,0.07182605,10.05085850,-0.04048005,0.00106526,-0.00852212
1691757109507285,0.01915361,0.19632454,10.12268448,-0.05113269,0.00426106,-0.02024002
1691757109509274,-0.01915361,0.10055647,10.03649330,-0.04367584,0.00958738,-0.02024002
1691757109511415,-0.12928689,-0.03830723,10.11310768,-0.03621899,0.02343582,-0.01917476
1691757109513334,-0.02873042,0.04309563,10.00776291,-0.03621899,0.03302320,-0.00958738
1691757109515332,-0.13407530,0.00957681,10.02212811,-0.02769688,0.03195793,-0.01171791
1691757109517303,-0.00957681,0.10534488,10.09874249,-0.01384844,0.02237055,-0.01278317
1691757109519270,0.09097967,0.20590134,10.05564690,-0.02450108,0.01597897,-0.01491370
1691757109521437,-0.01915361,0.11013328,10.10831928,-0.03515373,-0.01065264,0.00106526
1691757109523297,0.02873042,0.16280572,10.07001209,-0.04261058,-0.02450108,0.00319579
1691757109525301,-0.06224924,0.00478840,10.09874249,-0.03941479,-0.03621899,-0.00106526
1691757109527322,0.04788403,-0.02394202,10.18014526,-0.03195793,-0.06604639,0.00106526
1691757109529287,0.25857377,0.15322891,10.16099167,-0.03621899,-0.07137272,-0.00319579
1691757109531296,0.22026655,-0.04309563,10.23760605,-0.03941479,-0.08202536,-0.00745685
1691757109533284,0.30166942,0.15801731,10.19929886,-0.04154531,-0.08948221,-0.01171791
1691757109535323,0.11492168,0.06703765,10.29027843,-0.05432849,-0.10333065,0.01065264
1691757109537356,0.02394202,-0.10534488,10.38125896,-0.06391586,-0.12250541,-0.00106526
1691757109539292,0.19632454,0.07661445,10.32379818,-0.07456851,-0.14594123,0.01065264
1691757109541278,0.08140286,0.02394202,10.40998936,-0.09374327,-0.15872440,0.00319579
1691757109543319,0.22505496,0.22984336,10.26633644,-0.09480853,-0.16405073,0.02237055
1691757109545395,0.16280572,0.31124622,10.23760605,-0.08522116,-0.16618125,0.02663161
1691757109547282,0.03351882,0.09097967,10.22802925,-0.09587380,-0.14700650,0.04367584
1691757109549264,0.13886370,0.16280572,10.08437729,-0.06924219,-0.13741912,0.02982740
1691757109551329,-0.05746084,0.08619126,10.23760605,-0.04580637,-0.13315806,0.03408846
1691757109553439,0.00478840,0.16280572,10.17056847,-0.00958738,-0.12676647,0.01171791
1691757109555293,0.01436521,0.30166942,10.15620327,-0.01065264,-0.12037488,0.00319579
1691757109557372,-0.10534488,0.24899697,10.21845245,-0.02024002,-0.10759171,-0.00319579
1691757109559263,0.03830723,0.36391866,10.07001209,-0.04048005,-0.10759171,0.01278317
1691757109561351,-0.15322891,0.29209262,10.15620327,-0.05432849,-0.09906960,0.01171791
1691757109563487,-0.04788403,0.03351882,10.07958889,-0.06178534,-0.08735169,0.01384844
1691757109565377,-0.05267244,0.09097967,10.03649330,-0.06285060,-0.08309063,0.00426106
1691757109567308,-0.18674773,0.05746084,10.12747288,-0.05965481,-0.07563377,0.01065264
1691757109569324,-0.00478840,0.15322891,10.00297451,-0.05645901,-0.05645901,0.01491370
1691757109571302,-0.15801731,0.29209262,10.07480049,-0.05219796,-0.03834952,0.02237055
1691757109573294,-0.11013328,0.24420857,9.99339771,-0.02982740,-0.04154531,0.00532632
1691757109575297,-0.06703765,0.28251579,10.01255131,-0.01491370,-0.03941479,0.01917476
1691757109577304,-0.22984336,0.15801731,10.17056847,-0.01704423,-0.02769688,0.02024002
1691757109579333,-0.02394202,-0.06703765,10.04607010,-0.02982740,-0.02769688,0.03621899
1691757109581317,-0.11971009,0.07661445,10.15141487,-0.03195793,-0.02343582,0.02769688
1691757109583286,-0.12928689,0.12928689,10.11789608,-0.03941479,-0.04048005,0.03621899
1691757109585337,-0.04309563,0.25857377,10.08437729,-0.06604639,-0.04900216,0.02237055
1691757109587311,-0.21547815,0.22026655,10.23281765,-0.07989483,-0.05432849,0.01810949
1691757109589323,0.01436521,0.05746084,10.02691650,-0.07137272,-0.05326322,0.02663161
1691757109591343,-0.09576806,0.11013328,10.05564690,-0.06924219,-0.05219796,0.02982740
1691757109593319,-0.16280572,0.02394202,10.09395409,-0.07243798,-0.02982740,0.03728426
1691757109595323,0.00957681,0.00478840,9.87847614,-0.07137272,-0.00958738,0.02556635
1691757109597323,-0.15322891,0.18674773,9.94551373,-0.05326322,0.01704423,0.02982740
1691757109599347,-0.07182605,0.25857377,9.81143856,-0.04154531,0.02876214,0.01384844
1691757109601297,-0.08140286,0.31124622,9.80186176,-0.00958738,0.04687164,0.01171791
1691757109603368,-0.14844051,0.26815060,9.87368774,-0.00426106,0.05965481,0.00426106
1691757109605306,0.06224924,0.06224924,9.69651699,0.00213053,0.05113269,0.02237055
1691757109607350,-0.09576806,0.07661445,9.84495735,0.00213053,0.02237055,0.02769688
1691757109609263,-0.03830723,0.09097967,9.85932255,0.01810949,0.01065264,0.01917476
1691757109611369,0.13886370,0.18195933,9.81622696,0.01491370,-0.02343582,0.02130529
1691757109613316,0.08140286,0.23463176,9.94072533,0.01065264,-0.06178534,0.01704423
1691757109615297,0.21547815,0.22026655,9.85932255,0.01384844,-0.07989483,0.01171791
1691757109617287,0.04788403,0.21068975,9.93114853,0.01704423,-0.09906960,0.00532632
1691757109619264,0.00957681,0.11971009,9.96945572,0.01491370,-0.13315806,0.00852212
1691757109621327,0.09097967,0.08619126,9.86889935,-0.00745685,-0.14381070,0.01810949
1691757109623287,-0.02394202,0.01915361,9.93114853,0.00000000,-0.13422331,0.02024002
1691757109625290,0.17238252,0.22505496,9.81622696,-0.00852212,-0.14061491,0.01917476
1691757109627291,0.09097967,0.13886370,9.81143856,-0.00106526,-0.13528858,0.03302320
1691757109629321,-0.01915361,0.08619126,9.79228497,-0.00639159,-0.09906960,0.06178534
1691757109631308,0.06224924,0.24420857,9.63426781,0.00958738,-0.07669904,0.04261058
1691757109633289,-0.27293900,0.10055647,9.73003578,0.01704423,-0.04048005,0.04048005
1691757109635314,-0.28730419,0.31124622,9.61032581,0.01278317,-0.01704423,0.04474111
1691757109637547,-0.26336220,0.18195933,9.56244183,0.02024002,-0.00213053,0.02237055
1691757109639276,-0.33039984,0.16759412,9.64863300,0.03302320,0.01278317,0.01810949
1691757109641315,-0.05746084,0.35913026,9.50976944,0.03834952,0.01491370,0.02663161
1691757109643322,-0.12928689,0.12928689,9.64863300,0.04048005,0.02343582,0.03302320
1691757109645435,-0.09576806,0.22984336,9.69172859,0.04154531,0.02982740,0.02556635
1691757109647300,0.00000000,0.24899697,9.59596062,0.03941479,0.03302320,0.02663161
1691757109649267,-0.27293900,0.11971009,9.79228497,0.03408846,0.02343582,0.02876214
1691757109651316,-0.18195933,0.22984336,9.70130539,0.04900216,0.03089267,0.00532632
1691757109653347,-0.09097967,0.10055647,9.72045898,0.04580637,0.04580637,0.01491370
1691757109655324,-0.14365210,0.08140286,9.86411095,0.03621899,0.03195793,0.01704423
1691757109657298,0.07182605,0.21068975,9.73482418,0.02982740,0.03089267,0.01810949
1691757109659283,-0.09097967,0.11492168,9.89762974,0.03089267,0.03515373,0.01491370
1691757109661330,-0.24899697,0.05267244,9.92157173,0.04367584,0.03515373,0.01065264
1691757109663304,0.02873042,0.18674773,9.76834297,0.05113269,0.04580637,0.03089267
1691757109665365,-0.26336220,0.14844051,9.92636013,0.05432849,0.07030746,0.02450108
1691757109667296,-0.11971009,0.21547815,9.74440098,0.04687164,0.10120012,0.00958738
1691757109669291,0.01436521,0.28251579,9.73961258,0.05965481,0.11398330,0.00106526
1691757109671431,-0.26815060,0.22984336,9.91678333,0.07882957,0.12996227,0.00000000
1691757109673346,-0.00957681,0.26815060,9.69651699,0.07563377,0.14700650,-0.00319579
1691757109675309,-0.12928689,0.18195933,9.67257500,0.08309063,0.14594123,-0.00639159
1691757109677301,-0.27293900,0.09576806,9.79707336,0.09906960,0.14168017,0.01384844
1691757109679330,-0.02394202,0.18195933,9.65342140,0.11717909,0.12250541,0.02450108
1691757109681310,-0.11492168,0.04309563,9.78749657,0.10865697,0.10013486,0.03621899
1691757109683399,-0.13407530,0.11971009,9.81622696,0.09800433,0.07456851,0.03621899
1691757109685327,0.02394202,0.00478840,9.81622696,0.07989483,0.02450108,0.03941479
1691757109687343,-0.02394202,0.09576806,9.92636013,0.07137272,-0.02343582,0.05113269
1691757109689271,0.12449849,0.14844051,9.86411095,0.07669904,-0.04580637,0.04793690
1691757109691359,0.04309563,0.11013328,9.97424412,0.08415589,-0.08522116,0.04474111
1691757109693316,-0.05267244,0.01915361,9.96945572,0.07669904,-0.09587380,0.03728426
1691757109695279,0.25857377,0.26336220,9.91199493,0.05326322,-0.11185277,0.03195793
1691757109697308,-0.17238252,-0.12449849,10.03170490,0.03408846,-0.11185277,0.01278317
1691757109699290,0.08619126,0.16280572,9.90720654,0.01704423,-0.10652644,0.00319579
1691757109701300,-0.03830723,0.13407530,9.96945572,0.01278317,-0.09374327,0.00852212
1691757109703375,-0.27772740,-0.08619126,9.99818611,0.00639159,-0.08415589,0.01065264
1691757109705333,-0.07661445,0.28251579,9.80665016,-0.00106526,-0.06924219,0.01491370
1691757109707353,-0.36870706,-0.02394202,9.98382092,-0.00532632,-0.03195793,0.01810949
1691757109709274,-0.20111294,0.12928689,9.80186176,0.01597897,-0.02130529,0.01278317
1691757109711363,-0.11492168,0.30645782,9.78749657,0.04261058,0.00000000,0.02343582
1691757109713341,-0.33039984,0.09097967,9.94072533,0.06391586,0.02024002,0.00745685
1691757109715322,-0.06224924,0.46926352,9.72524738,0.07030746,0.02876214,0.01065264
1691757109717297,-0.36391866,0.16759412,9.86889935,0.08096009,0.04154531,0.01491370
1691757109719281,-0.33518824,0.15801731,9.83059216,0.08202536,0.03834952,0.02343582
1691757109721332,-0.11971009,0.37828386,9.76355457,0.08522116,0.04261058,0.02024002
1691757109723328,-0.35913026,-0.04309563,9.96945572,0.07882957,0.04474111,0.02343582
1691757109725381,-0.06703765,0.25857377,9.82101536,0.07776430,0.04580637,0.02237055
1691757109727311,-0.14844051,0.24899697,9.91199493,0.06391586,0.04900216,0.00852212
1691757109729378,-0.18195933,0.21547815,9.93114853,0.06285060,0.06178534,0.00639159
1691757109731389,-0.01436521,0.45968673,9.71567059,0.07882957,0.09374327,0.00745685
1691757109733289,-0.23942018,0.07182605,9.82580376,0.07776430,0.12357067,0.02343582
1691757109735360,-0.14365210,0.21547815,9.71567059,0.07563377,0.15126754,0.01491370
1691757109737364,-0.21068975,0.22984336,9.61511421,0.09800433,0.16724652,0.01597897
1691757109739297,-0.32561144,0.05746084,9.74918938,0.12889700,0.18322548,0.01065264
1691757109741293,-0.20590134,0.36391866,9.63905621,0.13102752,0.18642128,0.00958738
1691757109743459,-0.29209262,0.23463176,9.68694019,0.13422331,0.16618125,0.00000000
1691757109745421,-0.12449849,0.19153613,9.66299820,0.13635385,0.13954964,0.01491370
1691757109747428,0.05267244,0.33039984,9.66778660,0.12570120,0.11930962,0.01065264
1691757109749290,-0.04788403,0.02873042,9.80186176,0.10333065,0.07669904,0.02450108
1691757109751299,0.03351882,0.14844051,9.73003578,0.08415589,0.07030746,0.01810949
1691757109753436,0.07661445,0.13407530,9.78270817,0.08096009,0.04048005,0.01917476
1691757109755320,-0.02394202,0.06224924,9.82101536,0.06178534,0.03089267,0.00532632
1691757109757298,0.05746084,0.26815060,9.81143856,0.04154531,0.03408846,0.02556635
1691757109759288,-0.03351882,0.07661445,9.86411095,0.04048005,0.04580637,0.01810949
1691757109761375,0.10055647,0.30166942,9.73003578,0.04793690,0.04367584,0.00000000
1691757109763309,-0.08619126,0.36391866,9.80186176,0.03515373,0.06817693,0.01278317
1691757109765355,-0.13407530,0.12449849,9.83538055,0.03834952,0.09693906,0.00000000
1691757109767295,-0.03351882,0.18195933,9.79228497,0.04154531,0.10972223,0.00000000
1691757109769234,-0.25857377,0.08140286,9.86889935,0.04261058,0.12889700,-0.01384844
1691757109771344,-0.02873042,0.28730419,9.87847614,0.04687164,0.12996227,-0.01810949
1691757109773324,-0.26815060,0.21547815,9.94072533,0.03728426,0.13848437,-0.01704423
1691757109775296,-0.21068975,0.14365210,9.88805294,0.02556635,0.13315806,-0.02556635
1691757109777347,0.07661445,0.30166942,9.91678333,0.02769688,0.10546118,-0.03408846
1691757109779337,-0.11971009,0.14365210,10.09395409,0.05006743,0.07989483,-0.03195793
1691757109781299,0.01436521,0.22026655,9.94072533,0.04793690,0.06604639,-0.01917476
1691757109783294,-0.13407530,0.22984336,10.04128170,0.05006743,0.02769688,-0.02556635
1691757109785331,-0.11013328,0.11013328,9.97424412,0.06072007,-0.00426106,-0.00639159
1691757109787369,0.11492168,0.26815060,9.89284134,0.05645901,-0.02343582,0.00852212
1691757109789303,-0.05746084,0.17717093,10.01255131,0.06604639,-0.02343582,-0.00958738
1691757109791326,0.16759412,0.29209262,9.73961258,0.06178534,-0.02556635,0.00000000
1691757109793344,0.00000000,0.27293900,9.81622696,0.06498113,-0.01597897,0.01065264
1691757109795377,-0.12449849,0.18195933,9.76355457,0.05219796,0.01171791,-0.02130529
1691757109797336,-0.00478840,0.30645782,9.63426781,0.06924219,0.04154531,-0.01917476
1691757109799274,-0.33039984,0.11492168,9.80665016,0.07243798,0.09906960,0.00532632
1691757109801359,-0.17238252,0.11971009,9.47625065,0.09267800,0.12783173,-0.01065264
1691757109803360,-0.21068975,0.20111294,9.60074902,0.11078750,0.18961707,-0.02024002
1691757109805306,-0.45968673,0.11013328,9.69651699,0.10439591,0.22903186,-0.00852212
1691757109807359,-0.17717093,0.39264908,9.44752026,0.10972223,0.26738137,-0.02343582
1691757109809304,-0.40701428,0.26815060,9.64863300,0.10333065,0.30146983,-0.01384844
1691757109811363,-0.14844051,0.26336220,9.30865574,0.10759171,0.31744879,0.01278317
1691757109813326,-0.08619126,0.45489833,9.44273186,0.11078750,0.31957933,0.00532632
1691757109815302,-0.33039984,0.08140286,9.64863300,0.13741912,0.32064459,-0.00426106
1691757109817292,-0.00957681,0.26815060,9.30386734,0.13422331,0.31318775,0.00426106
1691757109819333,-0.10055647,0.26815060,9.50498104,0.11504856,0.26312032,-0.00852212
1691757109821312,-0.19632454,-0.06703765,9.44273186,0.11824435,0.23116238,-0.00213053
1691757109823314,0.17238252,0.25857377,9.34696388,0.11398330,0.21518342,-0.01491370
1691757109825296,0.00000000,0.00478840,9.61511421,0.10333065,0.18429075,-0.01065264
1691757109827316,0.27293900,0.04309563,9.41878986,0.08309063,0.15872440,-0.00319579
1691757109829333,0.22026655,0.17238252,9.51934624,0.09374327,0.14061491,-0.02024002
1691757109831295,0.07182605,0.09576806,9.65820980,0.08841695,0.13422331,-0.02450108
1691757109833368,0.31603462,0.24420857,9.52413464,0.07563377,0.13422331,-0.01597897
1691757109835364,0.00957681,0.01915361,9.74440098,0.06285060,0.12889700,-0.00958738
1691757109837356,0.08619126,0.01436521,9.64384460,0.06711166,0.12357067,-0.02663161
1691757109839274,0.09576806,0.15322891,9.71567059,0.09054748,0.14594123,-0.02556635
1691757109841322,-0.01915361,0.08619126,9.92157173,0.09161274,0.13315806,-0.03834952
1691757109843330,0.22026655,0.17238252,9.76355457,0.10013486,0.11611383,-0.03621899
1691757109845300,0.05746084,0.20590134,9.96945572,0.09800433,0.12144014,-0.02663161
1691757109847311,0.12449849,0.17238252,9.96945572,0.09906960,0.10546118,-0.01278317
1691757109849253,0.09576806,0.15801731,9.95987892,0.08096009,0.07669904,-0.00426106
1691757109851293,-0.06703765,0.13407530,10.14662647,0.07030746,0.06178534,-0.00426106
1691757109853332,0.10534488,-0.07661445,10.06043530,0.04900216,0.04474111,-0.01704423
1691757109855313,0.00000000,0.24420857,10.23760605,0.04261058,0.01704423,-0.01278317
1691757109857338,0.09097967,0.16280572,10.23281765,0.03195793,0.01491370,-0.01597897
1691757109859270,0.04309563,0.01436521,10.19451046,0.03515373,-0.00319579,-0.02024002
1691757109861335,0.01436521,0.34955344,10.24718285,0.02982740,0.00745685,-0.03621899
1691757109863326,-0.01436521,-0.04309563,10.16099167,0.02876214,0.03089267,-0.00958738
1691757109865307,-0.00478840,0.40701428,10.13704967,0.00745685,0.04900216,-0.03621899
1691757109867304,-0.05746084,0.29209262,10.10831928,0.01810949,0.04900216,-0.03515373
1691757109869333,-0.20111294,-0.09576806,10.17535686,0.02876214,0.06711166,-0.05113269
1691757109871398,-0.02394202,0.35434186,10.07958889,-0.00745685,0.07350325,-0.03302320
1691757109873313,-0.17717093,-0.11971009,10.18014526,0.01384844,0.05432849,-0.03621899
1691757109875295,-0.16280572,0.17717093,10.15141487,0.01917476,0.04793690,-0.02556635
1691757109877351,0.04309563,0.42137951,10.10353088,-0.00426106,0.04793690,-0.02769688
1691757109879354,-0.04788403,0.13407530,10.17535686,-0.01704423,0.03195793,-0.02556635
1691757109881365,-0.01915361,0.27293900,10.13704967,-0.00106526,0.00852212,-0.02237055
1691757109883313,-0.01436521,-0.02394202,10.28549004,-0.02663161,-0.02130529,-0.03408846
1691757109885356,-0.01915361,0.08140286,10.27112484,-0.03941479,-0.03515373,-0.03195793
1691757109887360,-0.01436521,0.06703765,10.26154804,-0.01917476,-0.05645901,-0.03195793
1691757109889286,-0.00478840,0.10055647,10.32379818,-0.03621899,-0.07882957,-0.04580637
1691757109891327,0.11971009,0.40222588,10.23281765,-0.03089267,-0.08841695,-0.05432849
1691757109893337,0.02394202,0.02394202,10.32379818,-0.01597897,-0.09587380,-0.04580637
1691757109895348,-0.02394202,0.11971009,10.29985619,-0.01491370,-0.09480853,-0.04687164
1691757109897311,0.13407530,0.32561144,10.23281765,-0.00958738,-0.10759171,-0.04900216
1691757109899352,-0.07661445,0.12928689,10.30464458,-0.00532632,-0.08948221,-0.05858954
1691757109901418,0.03351882,0.41659111,10.22324085,-0.00852212,-0.07563377,-0.05219796
1691757109903375,-0.21068975,-0.05267244,10.30464458,-0.02343582,-0.04793690,-0.06711166
1691757109905339,-0.09097967,0.40222588,10.19929886,-0.02876214,-0.02024002,-0.04580637
1691757109907245,-0.13886370,0.27293900,10.12747288,-0.03195793,-0.00106526,-0.04048005
1691757109909297,-0.14844051,0.25857377,10.17056847,-0.02343582,0.04261058,-0.04154531
1691757109911307,-0.20590134,0.38786069,10.08916569,-0.01384844,0.05752428,-0.03621899
1691757109913393,-0.29688102,0.15322891,10.08916569,-0.01491370,0.07243798,-0.02450108
1691757109915295,-0.22026655,0.22026655,10.10353088,-0.01491370,0.06924219,-0.03089267
1691757109917441,-0.06703765,0.32082301,9.99818611,-0.00426106,0.05219796,-0.03941479
1691757109919269,-0.20111294,0.19153613,10.10831928,-0.00213053,0.03941479,-0.02982740
1691757109921442,-0.09097967,0.44053310,10.07958889,-0.00958738,0.03728426,-0.04048005
1691757109923309,-0.17238252,0.08619126,10.00776291,-0.00639159,0.02876214,-0.03408846
1691757109925288,-0.08140286,0.19153613,9.94072533,0.00958738,0.03621899,-0.04154531
1691757109927297,-0.10055647,0.11971009,10.01733971,0.00745685,0.04687164,-0.03408846
1691757109929252,-0.12449849,0.10055647,9.99818611,-0.01065264,0.04474111,-0.03834952
1691757109931339,-0.09576806,0.09576806,9.95509052,-0.01384844,0.01704423,-0.03621899
1691757109933302,-0.05746084,0.05267244,9.97903252,-0.00639159,-0.00639159,-0.03515373
1691757109935318,0.09097967,0.39743748,9.92636013,0.00000000,-0.04900216,-0.01810949
1691757109937386,0.01436521,0.22026655,10.07001209,-0.01384844,-0.07989483,-0.01917476
1691757109939324,0.00478840,-0.01915361,10.04128170,-0.02130529,-0.12463594,-0.02450108
1691757109941311,0.20111294,0.23463176,10.03649330,-0.04580637,-0.15446334,-0.04261058
1691757109943327,0.03830723,-0.06703765,10.15620327,-0.05219796,-0.17363811,-0.02982740
1691757109945391,0.18674773,0.24899697,10.04607010,-0.07030746,-0.18535601,-0.02876214
1691757109947388,0.07182605,0.15322891,10.15620327,-0.07882957,-0.18429075,-0.00532632
1691757109949279,0.14844051,0.27772740,10.05564690,-0.07137272,-0.17150757,-0.01597897
1691757109951358,0.07661445,0.26815060,10.08437729,-0.06817693,-0.18429075,0.00000000
1691757109953400,-0.04788403,0.07661445,10.24239445,-0.09054748,-0.18002969,-0.00852212
1691757109955325,0.08619126,0.26336220,10.12268448,-0.09693906,-0.17470337,-0.01491370
1691757109957297,-0.00478840,0.12928689,10.31422138,-0.08096009,-0.18429075,-0.02556635
1691757109959324,0.00000000,0.08619126,10.22802925,-0.08628642,-0.20133498,-0.00958738
1691757109961365,0.00478840,0.22505496,10.24718285,-0.08948221,-0.20026971,-0.04367584
1691757109963371,-0.08619126,0.00000000,10.40998936,-0.09267800,-0.20772657,-0.04793690
1691757109965300,0.14365210,0.14365210,10.21366405,-0.10013486,-0.20346551,-0.03621899
1691757109967336,-0.03830723,0.12928689,10.38604736,-0.09587380,-0.20346551,-0.01384844
1691757109969290,0.00000000,0.15322891,10.29985619,-0.08735169,-0.18535601,-0.01065264
1691757109971343,0.04788403,0.28251579,10.29506683,-0.07350325,-0.15233281,0.00000000
1691757109973301,-0.16759412,0.10055647,10.40041256,-0.05539375,-0.14061491,0.00532632
1691757109975293,-0.06224924,0.11971009,10.16099167,-0.04474111,-0.14594123,0.00000000
1691757109977384,-0.24899697,0.14365210,10.35252857,-0.05539375,-0.13635385,-0.01171791
1691757109979378,-0.18195933,0.04788403,10.27112484,-0.05006743,-0.12996227,-0.01278317
1691757109981347,0.00478840,0.27293900,10.20887566,-0.03941479,-0.13528858,-0.02130529
1691757109983236,-0.11971009,0.22984336,10.31900978,-0.03834952,-0.13954964,-0.03302320
1691757109985369,-0.00957681,0.22984336,10.11789608,-0.03089267,-0.13209279,-0.02982740
1691757109987358,-0.22026655,0.19153613,10.23760605,-0.02343582,-0.11930962,-0.02769688
1691757109989306,-0.22026655,0.10055647,10.14662647,-0.02343582,-0.09906960,-0.01917476
1691757109991349,-0.04309563,0.16759412,10.05085850,-0.02237055,-0.10120012,-0.02237055
1691757109993324,-0.23463176,0.10534488,10.11789608,-0.02982740,-0.09054748,-0.01597897
1691757109995312,-0.00478840,0.07182605,10.05564690,-0.04367584,-0.08096009,-0.01278317
1691757109997326,-0.20590134,0.23942018,10.18014526,-0.03515373,-0.09693906,-0.00639159
1691757109999282,-0.20111294,0.21068975,10.12747288,-0.03302320,-0.11185277,-0.01278317
1691757110001333,-0.08619126,0.05746084,10.07958889,-0.03302320,-0.11717909,-0.01704423
1691757110003364,-0.17238252,0.25857377,10.15141487,-0.01597897,-0.10972223,-0.02450108
1691757110005337,-0.05746084,-0.04309563,9.96466732,0.00426106,-0.10546118,-0.02450108
1691757110007301,-0.16759412,0.31603462,9.96466732,-0.01278317,-0.07882957,-0.02876214
1691757110009298,-0.19632454,0.28251579,9.85932255,-0.02130529,-0.06178534,-0.02024002
1691757110011372,-0.07661445,0.07661445,9.82580376,-0.02769688,-0.03621899,-0.01917476
1691757110013316,-0.14365210,0.31124622,9.82101536,-0.03941479,-0.01171791,-0.02556635
1691757110015340,-0.10534488,0.04309563,9.72524738,-0.03089267,-0.00426106,-0.02769688
1691757110017300,-0.34476504,0.30166942,9.77791977,-0.01917476,0.02982740,-0.02556635
1691757110019322,-0.27772740,0.30645782,9.66778660,0.00639159,0.04687164,-0.02024002
1691757110021313,-0.22984336,0.21547815,9.67736340,0.01810949,0.04367584,-0.02130529
1691757110023291,-0.27293900,0.33039984,9.63426781,0.01065264,0.04580637,-0.01065264
1691757110025300,-0.08619126,0.12928689,9.58159542,0.00532632,0.04900216,-0.00319579
1691757110027309,-0.24899697,0.18674773,9.74440098,0.01597897,0.04154531,-0.00106526
1691757110029361,-0.06224924,0.25857377,9.58159542,0.01597897,0.02556635,-0.00319579
1691757110031324,-0.06703765,0.24420857,9.75397778,-0.01065264,0.01810949,-0.00106526
1691757110033294,-0.08140286,0.21068975,9.76834297,-0.00106526,0.00000000,-0.00213053
1691757110035351,-0.00478840,0.23463176,9.76834297,-0.00958738,-0.01810949,-0.00319579
1691757110037326,-0.26815060,0.02873042,9.90720654,-0.01171791,-0.03728426,-0.00852212
1691757110039277,-0.03830723,0.12928689,9.70609379,-0.01704423,-0.06924219,-0.00532632
1691757110041293,-0.01436521,0.16280572,9.80186176,-0.01065264,-0.08628642,0.00639159
1691757110043327,0.00957681,0.27772740,9.77791977,-0.00745685,-0.08735169,0.00319579
1691757110045389,0.29209262,0.25378537,9.60553741,-0.00213053,-0.08841695,0.01065264
1691757110047346,-0.06703765,0.22026655,9.82101536,0.01384844,-0.06285060,0.00000000
1691757110049316,0.01436521,0.23942018,9.61032581,0.01810949,-0.06817693,-0.01810949
1691757110051288,-0.15801731,0.14844051,9.71088219,0.02450108,-0.05219796,-0.02556635
1691757110053366,-0.29688102,0.19632454,9.82101536,0.00106526,-0.02130529,0.00426106
1691757110055321,-0.02873042,0.04309563,9.63905621,-0.00958738,0.00000000,-0.00745685
1691757110057306,-0.28730419,0.08140286,9.83059216,-0.00745685,0.01384844,-0.01278317
1691757110059292,-0.07661445,0.19153613,9.71088219,-0.01278317,0.01597897,-0.00426106
1691757110061387,-0.13886370,0.20111294,9.77313137,-0.01704423,0.03302320,0.00958738
1691757110063311,-0.22984336,0.32082301,9.87368774,-0.01810949,0.02876214,0.00852212
1691757110065328,-0.18674773,0.06224924,9.73961258,-0.01597897,0.04154531,0.00319579
1691757110067318,-0.23942018,0.14844051,9.84974575,-0.02663161,0.03302320,0.00106526
1691757110069282,-0.13407530,0.14365210,9.81622696,-0.03302320,0.03195793,0.00426106
1691757110071336,-0.20111294,-0.00957681,9.84016895,-0.02982740,0.02876214,0.01171791
1691757110073335,-0.21068975,0.31603462,9.95030212,-0.03515373,0.01491370,0.00745685
1691757110075300,-0.10534488,-0.02873042,9.93114853,-0.03728426,0.01917476,0.01171791
1691757110077354,-0.09576806,0.20111294,9.98382092,-0.04154531,0.01065264,0.00319579
1691757110079328,0.00000000,0.35913026,9.98382092,-0.03834952,0.01171791,-0.00106526
1691757110081339,-0.09097967,-0.02873042,10.01733971,-0.03408846,0.01597897,0.00213053
1691757110083304,-0.13886370,0.41180268,10.07480049,-0.02130529,0.02876214,0.00958738
1691757110085352,-0.02394202,-0.00957681,9.99339771,-0.01065264,0.04154531,0.01171791
1691757110087545,-0.12928689,0.16280572,10.00297451,-0.00958738,0.05752428,0.00426106
1691757110089319,-0.00478840,0.52672440,9.99818611,-0.01065264,0.04261058,0.00213053
1691757110091322,-0.22026655,0.01915361,10.07001209,-0.01065264,0.01704423,-0.01384844
1691757110093317,-0.06224924,0.53630120,10.09395409,-0.00106526,0.01171791,-0.01384844
1691757110095390,-0.06224924,0.11971009,10.08437729,0.00106526,-0.00319579,-0.01278317
1691757110097323,-0.11492168,0.02873042,10.13226128,-0.00106526,-0.03089267,-0.00958738
1691757110099309,0.01436521,0.35434186,10.18493366,-0.00958738,-0.04048005,-0.01597897
1691757110101340,-0.00957681,-0.20590134,10.24239445,-0.00532632,-0.03834952,-0.01491370
1691757110103337,0.06703765,0.39264908,10.22802925,-0.01917476,-0.03728426,-0.01491370
1691757110105311,-0.08140286,-0.24899697,10.25675964,-0.02237055,-0.03941479,-0.01065264
1691757110107310,-0.02394202,0.05746084,10.19929886,-0.03089267,-0.02450108,-0.01491370
1691757110109302,-0.10534488,0.12928689,10.32858658,-0.04367584,-0.02237055,-0.01704423
1691757110111286,-0.19153613,-0.22984336,10.35731697,-0.06285060,-0.03728426,-0.01384844
1691757110113349,0.03351882,0.34955344,10.28549004,-0.05539375,-0.05645901,-0.00426106
1691757110115330,-0.13886370,0.09576806,10.31900978,-0.04793690,-0.06285060,-0.00213053
1691757110117306,0.04309563,0.15801731,10.21845245,-0.04154531,-0.05113269,0.00106526
1691757110119332,0.11971009,0.42616791,10.14662647,-0.03728426,-0.04048005,0.01597897
1691757110121308,-0.18674773,-0.03830723,10.17056847,-0.01491370,-0.01810949,0.01704423
1691757110123323,-0.06224924,0.44053310,10.00297451,0.00319579,-0.00639159,0.02024002
1691757110125320,-0.28251579,0.12449849,10.07958889,0.01704423,0.00745685,0.01917476
1691757110127319,-0.15801731,0.16759412,10.04128170,0.01597897,0.02024002,0.02556635
1691757110129315,0.03830723,0.27772740,9.92157173,0.02343582,0.02769688,0.02556635
1691757110131305,-0.23942018,-0.00478840,10.03170490,0.00852212,0.03621899,0.04154531
1691757110133300,-0.05267244,0.42616791,9.86889935,0.00532632,0.03621899,0.03408846
1691757110135394,-0.17717093,0.11971009,9.92636013,0.00000000,0.04687164,0.02024002
1691757110137328,-0.13886370,0.13407530,9.86889935,-0.00426106,0.04154531,0.00000000
1691757110139338,0.04309563,0.16759412,9.77791977,-0.01171791,0.03621899,-0.01065264
1691757110141315,-0.08140286,0.19632454,9.89762974,-0.00426106,0.03195793,-0.01491370
1691757110143353,-0.00957681,0.33997664,9.87847614,-0.00426106,0.03302320,-0.01384844
1691757110145395,-0.03351882,0.08140286,9.93114853,-0.01917476,0.02663161,0.00532632
1691757110147338,-0.02873042,0.24899697,9.97903252,-0.00745685,0.02343582,0.00852212
1691757110149286,0.11492168,0.23463176,9.91678333,0.00426106,0.01597897,0.00532632
1691757110151364,-0.20590134,0.05746084,10.07001209,0.00106526,0.00000000,-0.00319579
1691757110153385,-0.04309563,0.43574470,10.04607010,-0.01278317,-0.00639159,0.00106526
1691757110155346,-0.07661445,0.01915361,10.10831928,-0.00958738,-0.01171791,0.01704423
1691757110157308,-0.04788403,0.34476504,10.09874249,-0.00532632,-0.01065264,0.00958738
1691757110159278,0.08140286,0.24899697,10.05564690,-0.00426106,-0.00426106,0.00958738
1691757110161360,-0.07661445,0.35434186,10.11310768,-0.00532632,0.01065264,0.00000000
1691757110163321,-0.07661445,0.56981999,10.05085850,-0.00106526,0.02024002,0.00639159
1691757110165353,-0.15322891,0.01436521,10.08916569,0.00852212,0.04154531,0.00000000
1691757110167308,-0.12449849,0.38786069,10.11789608,0.02237055,0.05645901,0.00745685
1691757110169329,-0.06703765,0.22026655,10.11310768,0.02876214,0.06604639,0.01384844
1691757110171358,-0.20590134,0.11013328,10.15620327,0.02663161,0.07030746,0.02343582
1691757110173310,-0.05267244,0.61291564,10.13704967,0.02024002,0.06604639,0.03089267
1691757110175413,-0.14844051,-0.13407530,10.19929886,0.01597897,0.06711166,0.03302320
1691757110177348,-0.03351882,0.35913026,10.11310768,0.00852212,0.05432849,0.02663161
1691757110179358,-0.07661445,0.14365210,10.13704967,0.00958738,0.03089267,0.00852212
1691757110181320,-0.04788403,0.01915361,10.10831928,0.00639159,0.01065264,0.01171791
1691757110183462,0.08619126,0.53151280,10.09874249,0.00852212,0.00000000,-0.00852212
1691757110185327,0.02394202,0.01915361,10.00776291,0.02663161,-0.02663161,-0.00745685
1691757110187364,0.11971009,0.44053310,9.95030212,0.02450108,-0.02769688,-0.01171791
1691757110189324,-0.04788403,0.14844051,10.01733971,0.03408846,-0.02876214,-0.00213053
1691757110191331,-0.04788403,-0.03351882,9.91199493,0.04154531,-0.02556635,-0.02130529
1691757110193321,0.00000000,0.42137951,9.92636013,0.03089267,-0.01597897,-0.01384844
1691757110195360,-0.21547815,-0.12928689,9.95509052,0.00745685,-0.00106526,0.00319579
1691757110197379,0.06224924,0.39743748,9.82101536,0.02663161,0.00745685,0.00532632
1691757110199285,-0.37349546,-0.11013328,9.98860931,0.02130529,0.03515373,0.01491370
1691757110201369,-0.11013328,0.11492168,9.91678333,0.00958738,0.05113269,0.00852212
1691757110203402,-0.20590134,0.14365210,10.03649330,0.02982740,0.06391586,-0.00106526
1691757110205385,-0.40701428,-0.12928689,10.05564690,0.03302320,0.06711166,-0.00213053
1691757110207356,-0.06224924,0.31124622,9.89762974,0.02982740,0.06924219,-0.01810949
1691757110209313,-0.20590134,0.09097967,10.12268448,0.03302320,0.06817693,-0.01171791
1691757110211345,-0.12449849,0.09097967,10.04128170,0.03728426,0.07030746,-0.00319579
1691757110213400,0.08619126,0.41659111,10.03170490,0.03728426,0.06178534,-0.00213053
1691757110215389,-0.29209262,0.04788403,10.19929886,0.04900216,0.04474111,0.00319579
1691757110217330,0.06703765,0.33997664,10.04607010,0.03834952,0.02024002,0.01704423
1691757110219359,-0.08619126,-0.00957681,10.26154804,0.02769688,-0.01278317,0.00106526
1691757110221432,0.23942018,0.38307226,10.04128170,0.03621899,-0.03515373,0.00426106
1691757110223436,0.16759412,0.30645782,10.16578007,0.03834952,-0.05539375,0.01278317
1691757110225321,-0.06224924,0.10534488,10.17056847,0.02876214,-0.06072007,-0.00532632
1691757110227326,0.27293900,0.40222588,10.06522369,0.02769688,-0.05645901,-0.00319579
1691757110229398,0.02394202,0.04309563,10.20887566,0.01065264,-0.03834952,0.00106526
1691757110231483,-0.08619126,0.14365210,10.11789608,0.00852212,-0.03728426,0.00000000
1691757110233311,-0.02873042,0.23942018,10.09395409,0.00319579,-0.00745685,0.00000000
1691757110235334,-0.29688102,-0.03351882,10.22802925,0.00852212,0.01384844,0.00106526
1691757110237422,0.04788403,0.22984336,10.03170490,-0.00426106,0.02982740,-0.00532632
1691757110239294,-0.07661445,0.07182605,10.12747288,-0.01171791,0.04900216,-0.01810949
1691757110241315,-0.13407530,0.22505496,10.08437729,-0.01384844,0.05432849,-0.01917476
1691757110243308,-0.06703765,0.36870706,9.97424412,0.00745685,0.05326322,-0.02876214
1691757110245371,-0.23942018,0.08619126,10.00776291,0.02343582,0.04900216,-0.01065264
1691757110247374,-0.07182605,0.25378537,9.86411095,0.03621899,0.04474111,-0.00958738
1691757110249317,-0.21068975,0.00478840,9.91678333,0.04793690,0.03195793,0.00319579
1691757110251337,-0.15801731,0.11492168,9.89762974,0.04048005,0.02556635,-0.00319579
1691757110253411,-0.07661445,0.27772740,9.85932255,0.02450108,0.01597897,-0.00319579
1691757110255328,-0.02394202,0.14844051,9.85453415,0.01278317,-0.00106526,-0.00532632
1691757110257313,0.08140286,0.28251579,9.85932255,0.02982740,-0.00532632,-0.00106526
1691757110259291,-0.13886370,0.10055647,9.94551373,0.03515373,0.00639159,-0.01065264
1691757110261388,-0.04788403,0.14365210,9.83538055,0.03408846,0.01810949,-0.01278317
1691757110263393,-0.14844051,0.22026655,9.89762974,0.01917476,0.03941479,0.00319579
1691757110265315,-0.21547815,0.01915361,9.74918938,0.01278317,0.09161274,-0.00639159
1691757110267314,-0.08619126,0.17238252,9.73003578,0.01917476,0.13635385,-0.01917476
1691757110269288,-0.30166942,0.03830723,9.88326454,0.01065264,0.15659387,-0.00106526
1691757110271339,-0.07661445,0.28730419,9.64384460,0.01597897,0.14700650,-0.01597897
1691757110273358,-0.19632454,0.40701428,9.80665016,0.03089267,0.14487596,-0.03728426
1691757110275519,-0.16280572,0.21547815,9.72045898,0.05432849,0.11611383,-0.02130529
1691757110277345,-0.09576806,0.33518824,9.91678333,0.04474111,0.07350325,-0.02237055
1691757110279359,-0.30645782,0.01915361,9.95030212,0.05326322,0.06178534,-0.01917476
1691757110281318,0.05746084,0.10055647,9.69172859,0.05858954,0.05113269,-0.02876214
1691757110283322,-0.02394202,0.22505496,9.87847614,0.04793690,0.04154531,-0.01491370
1691757110285317,-0.05267244,0.14365210,9.82101536,0.03515373,0.04261058,-0.01597897
1691757110287402,0.23942018,0.30166942,9.69651699,0.04793690,0.05113269,-0.01065264
1691757110289309,-0.14844051,0.17238252,9.85932255,0.04900216,0.06285060,-0.00639159
1691757110291337,0.04309563,0.24899697,9.62469101,0.03941479,0.05539375,-0.01278317
1691757110293308,-0.07661445,0.18674773,9.89284134,0.02343582,0.06391586,0.00213053
1691757110295384,-0.22026655,0.01915361,9.84495735,0.01917476,0.06498113,0.01065264
1691757110297352,0.03351882,0.15801731,9.75876617,0.02769688,0.08628642,0.01491370
1691757110299316,-0.26815060,0.12928689,10.04128170,0.02982740,0.07563377,0.00426106
1691757110301339,0.02394202,0.22984336,9.82101536,0.02556635,0.07456851,-0.00958738
1691757110303369,0.03830723,0.26815060,9.92636013,0.01810949,0.08735169,-0.01278317
1691757110305383,-0.10055647,0.18674773,9.86889935,0.04048005,0.09374327,-0.02024002
1691757110307341,0.10534488,0.30166942,9.72524738,0.07243798,0.09161274,-0.01278317
1691757110309294,-0.25857377,0.19632454,9.98382092,0.07563377,0.09374327,-0.00745685
1691757110311366,-0.11492168,0.24899697,9.81622696,0.05858954,0.10759171,-0.00958738
1691757110313395,-0.02873042,0.28730419,9.89284134,0.06072007,0.10013486,-0.02450108
1691757110315390,-0.11492168,0.16280572,9.95509052,0.06072007,0.09587380,-0.02450108
1691757110317436,0.09576806,0.35913026,9.79707336,0.05006743,0.10865697,-0.02982740
1691757110319327,-0.15322891,0.27293900,9.95030212,0.04261058,0.12570120,-0.01597897
1691757110321362,-0.08619126,0.23942018,9.82101536,0.04900216,0.13102752,-0.01704423
1691757110323374,-0.10534488,0.28251579,9.85453415,0.04900216,0.12996227,-0.02237055
1691757110325339,-0.17238252,0.10055647,10.02212811,0.04900216,0.13102752,-0.02663161
1691757110327342,-0.07182605,0.15801731,9.95030212,0.04687164,0.13528858,-0.02024002
1691757110329389,-0.22984336,0.14365210,10.08437729,0.04900216,0.12463594,-0.01278317
1691757110331398,-0.02873042,0.18674773,10.06043530,0.03941479,0.10972223,-0.02769688
1691757110333309,-0.01436521,0.30166942,10.13226128,0.03195793,0.09267800,-0.02769688
1691757110335357,-0.06224924,0.11492168,10.16099167,0.02769688,0.08522116,-0.02237055
1691757110337407,0.00478840,0.21547815,10.08437729,0.03408846,0.07456851,-0.02450108
1691757110339305,-0.04309563,0.22505496,10.16578007,0.02237055,0.05539375,-0.02876214
1691757110341311,0.06224924,0.09097967,10.19451046,0.00852212,0.05006743,-0.02130529
1691757110343425,-0.03830723,0.17717093,10.32379818,0.00639159,0.04580637,-0.01810949
1691757110345373,0.03830723,0.22505496,10.23281765,0.00319579,0.03408846,-0.01171791
1691757110347329,0.04788403,0.22505496,10.27591324,0.00852212,0.02982740,-0.00852212
1691757110349300,-0.03830723,0.21547815,10.31900978,0.01810949,0.02769688,-0.00745685
1691757110351308,0.06224924,0.07182605,10.31900978,0.02982740,0.01491370,-0.01491370
1691757110353441,-0.01915361,0.21547815,10.38604736,0.02130529,0.00532632,-0.01278317
1691757110355360,0.07661445,0.31603462,10.26154804,0.01597897,-0.00106526,-0.00426106
1691757110357453,0.06224924,0.15322891,10.33816338,0.01278317,-0.00426106,-0.00639159
1691757110359285,0.03351882,0.24420857,10.27591324,0.00532632,-0.00213053,-0.01597897
1691757110361353,-0.01915361,0.00957681,10.22802925,0.00213053,-0.01491370,-0.02130529
1691757110363396,-0.13407530,0.02394202,10.29506683,-0.00426106,-0.01491370,-0.02343582
1691757110365346,0.04788403,0.18674773,10.15141487,0.00213053,-0.00532632,-0.02343582
1691757110367310,0.03830723,0.09576806,10.25675964,-0.01384844,-0.00852212,-0.02663161
1691757110369372,0.02873042,0.34476504,10.19929886,-0.01065264,-0.00532632,-0.02024002
1691757110371356,-0.02394202,0.15322891,10.18014526,0.00745685,0.00000000,-0.01704423
1691757110373390,-0.17717093,0.26815060,10.25675964,0.00532632,-0.00213053,-0.02237055
1691757110375321,-0.01436521,0.23463176,10.07480049,-0.02769688,-0.00106526,-0.02982740
1691757110377312,-0.09576806,-0.01436521,10.22324085,-0.02769688,0.01065264,-0.01810949
1691757110379349,-0.04309563,0.20590134,10.06043530,-0.01491370,0.00852212,-0.02450108
1691757110381345,0.01915361,0.28251579,10.07958889,-0.01278317,0.00426106,-0.02556635
1691757110383321,-0.08619126,0.46926352,10.20887566,0.00106526,0.00000000,-0.02769688
1691757110385327,-0.01436521,0.31124622,10.03170490,0.00745685,-0.00106526,-0.02876214
1691757110387369,-0.11492168,0.07182605,10.07480049,-0.00106526,-0.00639159,-0.02982740
1691757110389291,-0.13407530,0.36391866,10.03649330,-0.00213053,-0.01065264,-0.01704423
1691757110391310,-0.08140286,0.07661445,9.93114853,0.00213053,-0.00852212,-0.00958738
1691757110393337,-0.09576806,0.41180268,10.06522369,0.00532632,0.01704423,-0.01065264
1691757110395377,0.02394202,0.30645782,9.91199493,0.02130529,0.01917476,-0.00213053
1691757110397344,-0.05267244,0.26815060,9.95030212,0.02556635,0.02450108,-0.01171791
1691757110399283,-0.13886370,0.46447513,9.99339771,0.02982740,0.03728426,-0.01597897
1691757110401337,-0.20111294,0.05267244,9.90720654,0.02769688,0.05113269,-0.01597897
1691757110403380,-0.29209262,0.38786069,9.97903252,0.04900216,0.07882957,-0.00106526
1691757110405344,-0.18674773,0.13407530,9.84974575,0.05752428,0.11504856,0.00745685
1691757110407327,-0.14844051,0.22505496,9.85453415,0.05006743,0.15233281,0.00745685
1691757110409308,-0.11971009,0.46926352,9.88805294,0.04474111,0.15872440,0.00426106
1691757110411389,-0.15801731,0.05267244,9.81143856,0.03408846,0.15233281,-0.00532632
1691757110413333,-0.21068975,0.58418524,9.87368774,0.04367584,0.13848437,0.00532632
1691757110415367,-0.09576806,0.20590134,9.81622696,0.03621899,0.11930962,-0.00745685
1691757110417310,-0.09097967,0.03830723,9.74440098,0.04154531,0.07137272,0.00106526
1691757110419337,-0.00478840,0.34955344,9.76355457,0.02237055,0.04261058,-0.01278317
1691757110421348,0.03830723,-0.15322891,9.78270817,0.02130529,0.01278317,-0.00532632
1691757110423308,0.12928689,0.33518824,9.78749657,0.00319579,-0.02130529,-0.01704423
1691757110425312,0.23463176,0.24420857,9.74440098,-0.00532632,-0.02876214,-0.00958738
1691757110427307,0.07182605,0.03351882,9.73482418,0.00213053,-0.03408846,-0.01278317
1691757110429351,0.09576806,0.43095630,9.77791977,0.00426106,-0.05219796,-0.00319579
1691757110431369,0.00000000,-0.02394202,9.83059216,0.00000000,-0.05965481,0.00532632
1691757110433324,0.01436521,0.21547815,9.86411095,0.00639159,-0.05326322,-0.00745685
1691757110435365,0.13886370,0.15322891,9.90720654,0.01491370,-0.06711166,-0.00213053
1691757110437345,-0.04309563,-0.05267244,9.96466732,-0.00213053,-0.06711166,-0.00852212
1691757110439295,0.04309563,0.44053310,9.94551373,-0.01704423,-0.07243798,-0.01597897
1691757110441315,-0.06224924,0.01436521,10.01255131,-0.03408846,-0.08309063,-0.02024002
1691757110443336,0.00000000,0.15801731,9.94551373,-0.05006743,-0.09374327,-0.02024002
1691757110445402,0.09097967,0.18195933,9.96945572,-0.02769688,-0.10865697,-0.02343582
1691757110447349,-0.12928689,-0.13407530,10.06043530,-0.02130529,-0.11185277,-0.02237055
1691757110449290,0.08619126,0.52193600,9.97903252,-0.01597897,-0.10972223,-0.01597897
1691757110451320,-0.06703765,0.09576806,10.08437729,-0.01171791,-0.11930962,-0.01597897
1691757110453381,-0.01436521,0.15801731,9.96945572,-0.00639159,-0.13102752,-0.01597897
1691757110455350,0.04788403,0.30166942,9.97903252,-0.01597897,-0.12357067,-0.02769688
1691757110457314,-0.25857377,-0.15801731,10.05564690,-0.00639159,-0.11185277,-0.00958738
1691757110459283,0.01436521,0.44053310,9.87847614,-0.00639159,-0.11504856,-0.00319579
1691757110461357,-0.13886370,0.12449849,10.00297451,-0.01810949,-0.11185277,0.00639159
1691757110463357,-0.06224924,0.17717093,9.87847614,-0.02982740,-0.10652644,-0.01810949
1691757110465311,0.10534488,0.36391866,9.84974575,-0.02450108,-0.08841695,-0.01278317
1691757110467351,-0.20590134,-0.11013328,9.93593693,-0.02450108,-0.08096009,-0.00426106
1691757110469286,0.00957681,0.39264908,9.71088219,-0.03408846,-0.09587380,-0.00745685
1691757110471310,-0.22026655,0.11971009,9.86889935,-0.04154531,-0.09480853,-0.01491370
1691757110473370,-0.15801731,0.06703765,9.81143856,-0.02769688,-0.07882957,-0.01810949
1691757110475309,0.10055647,0.36391866,9.73003578,-0.01704423,-0.07030746,-0.01917476
1691757110477286,-0.17238252,0.07182605,9.88326454,-0.02237055,-0.06711166,-0.00852212
1691757110479356,0.00957681,0.39264908,9.69651699,-0.02769688,-0.05858954,-0.00319579
1691757110481327,-0.21068975,0.17717093,9.84495735,-0.02343582,-0.05219796,-0.00213053
1691757110483324,-0.19632454,0.16759412,9.83538055,-0.01704423,-0.05645901,-0.01065264
1691757110485351,0.04788403,0.33518824,9.75876617,-0.02769688,-0.05432849,0.00319579
1691757110487387,-0.27293900,-0.02873042,9.96466732,-0.02663161,-0.05539375,-0.00426106
1691757110489322,0.01436521,0.28251579,9.87847614,-0.02130529,-0.06391586,-0.01065264
1691757110491315,-0.06224924,0.26815060,10.01255131,-0.02556635,-0.07882957,-0.01384844
1691757110493343,-0.11013328,0.27293900,10.03649330,-0.03515373,-0.07989483,-0.00958738
1691757110495344,0.08619126,0.37349546,9.95030212,-0.02130529,-0.07776430,-0.02343582
1691757110497365,-0.20590134,0.05267244,10.08437729,-0.02130529,-0.09587380,-0.02450108
1691757110499284,-0.01436521,0.31124622,9.94072533,-0.03515373,-0.09693906,-0.02663161
1691757110501327,-0.09097967,0.14844051,10.03649330,-0.03302320,-0.10439591,-0.01810949
1691757110503383,-0.07182605,0.22505496,10.05085850,-0.02450108,-0.10333065,-0.02663161
1691757110505334,0.14365210,0.44532153,9.96945572,-0.01597897,-0.10759171,-0.01491370
1691757110507367,-0.16280572,0.15801731,10.13226128,-0.00639159,-0.11611383,-0.01597897
1691757110509319,-0.03351882,0.33039984,10.04128170,-0.00319579,-0.12570120,-0.00213053
1691757110511405,-0.11013328,0.11013328,10.10353088,-0.00852212,-0.12570120,-0.00639159
1691757110513352,-0.17717093,0.16759412,10.13226128,-0.01384844,-0.13635385,0.00532632
1691757110515315,0.05267244,0.33518824,10.07001209,-0.00213053,-0.12889700,-0.00319579
1691757110517324,-0.14844051,0.20111294,10.17056847,0.00319579,-0.11398330,-0.00532632
1691757110519323,0.01915361,0.49799395,10.04607010,0.00106526,-0.10972223,-0.00745685
1691757110521352,-0.13407530,0.12449849,10.08437729,-0.02130529,-0.09906960,-0.00958738
1691757110523314,-0.27293900,0.11013328,10.11789608,-0.01171791,-0.07989483,-0.02024002
1691757110525339,-0.12449849,0.13407530,10.09874249,-0.02450108,-0.07350325,-0.02237055
1691757110527318,-0.29209262,0.00000000,10.16578007,-0.03621899,-0.06604639,-0.01491370
1691757110529357,-0.06703765,0.38307226,10.11310768,-0.03515373,-0.06604639,-0.00639159
1691757110531312,-0.13407530,0.07182605,10.19929886,-0.01491370,-0.07456851,-0.00532632
1691757110533338,-0.13886370,0.29688102,10.17056847,-0.01917476,-0.06072007,-0.00213053
1691757110535403,-0.08140286,0.27772740,10.22802925,-0.01384844,-0.03728426,0.00745685
1691757110537375,-0.28730419,-0.04788403,10.19929886,-0.00639159,-0.00106526,0.00639159
1691757110539299,-0.07661445,0.47884035,9.97424412,0.00532632,0.03408846,0.00106526
1691757110541316,-0.24899697,0.10534488,10.07001209,0.01704423,0.06711166,0.00532632
1691757110543368,-0.18195933,0.33997664,9.99339771,0.01917476,0.08415589,-0.00745685
1691757110545389,-0.05746084,0.40222588,9.95509052,0.00745685,0.08948221,-0.01704423
1691757110547326,-0.27772740,-0.10534488,9.93593693,0.01278317,0.06604639,-0.00639159
1691757110549305,-0.03830723,0.45489833,9.70130539,0.00745685,0.04474111,0.01065264
1691757110551354,0.31124622,0.61770403,9.85932255,0.01597897,0.01704423,0.00000000
1691757110553373,1.20188928,1.29765737,9.82580376,0.01704423,0.00319579,0.00852212
1691757110555333,1.09175599,0.93852705,9.99339771,0.01704423,-0.02343582,-0.01491370
1691757110557358,1.00556469,0.73262572,9.86411095,0.02450108,-0.04154531,0.01065264
1691757110559292,0.92895025,0.92895025,9.76834297,0.01597897,-0.04367584,-0.03089267
1691757110561441,0.52672440,0.38307226,9.80665016,-0.00106526,-0.00532632,-0.00426106
1691757110563326,0.67037648,0.77093297,9.48103905,0.00106526,0.01810949,-0.01704423
1691757110565381,0.29209262,0.61770403,9.55765343,0.02556635,0.05752428,0.00958738
1691757110567317,0.06224924,0.34955344,9.47625065,0.01917476,0.10865697,0.00426106
1691757110569322,0.12449849,0.68953007,9.36611748,0.04261058,0.12676647,-0.00745685
1691757110571353,-0.28730419,0.22505496,9.53371143,0.05326322,0.14700650,-0.00958738
1691757110573325,-0.09097967,0.32082301,9.32302189,0.03941479,0.13954964,0.00426106
1691757110575311,-0.12449849,0.30645782,9.48103905,0.03621899,0.12357067,0.01171791
1691757110577341,-0.25857377,-0.13886370,9.44752026,0.04900216,0.09054748,0.00426106
1691757110579348,0.11971009,0.38307226,9.31344414,0.03728426,0.06817693,0.01278317
1691757110581366,-0.10055647,0.26815060,9.56244183,0.00958738,0.03621899,0.00319579
1691757110583317,0.09576806,0.15322891,9.40442467,0.02556635,0.00745685,0.00213053
1691757110585336,0.16280572,0.42137951,9.51934624,0.00639159,-0.00532632,0.00745685
1691757110587324,-0.11492168,0.10534488,9.61511421,-0.00639159,-0.02982740,0.00745685
1691757110589302,0.13407530,0.23942018,9.42357826,0.00532632,-0.02982740,0.01065264
1691757110591321,-0.16759412,0.24420857,9.65820980,0.00958738,-0.02556635,0.02450108
1691757110593414,-0.00478840,0.11013328,9.55765343,-0.00319579,-0.03408846,0.01171791
1691757110595352,0.21547815,0.34955344,9.60074902,0.01065264,-0.02982740,0.01278317
1691757110597419,-0.11971009,0.13886370,9.78749657,0.02556635,-0.01384844,0.01171791
1691757110599299,0.11013328,0.28730419,9.55765343,0.01704423,-0.01491370,-0.01065264
1691757110601449,-0.18195933,0.34476504,9.79228497,0.02769688,0.00000000,-0.01491370
1691757110603367,-0.29209262,0.03351882,9.72045898,0.02982740,0.00532632,0.00745685
1691757110605351,0.05746084,0.25857377,9.70609379,0.01597897,0.00852212,0.00213053
1691757110607328,-0.24899697,0.10534488,9.99339771,0.01704423,0.00958738,0.00106526
1691757110609316,-0.00957681,0.09097967,9.72524738,0.01065264,0.00958738,0.02769688
1691757110611334,-0.06224924,0.36391866,9.88326454,-0.00213053,0.00426106,0.02237055
1691757110613339,-0.24899697,0.17238252,9.89284134,0.00213053,0.00639159,0.00745685
1691757110615341,0.09097967,0.30166942,9.84016895,0.00319579,-0.00106526,0.00639159
1691757110617314,-0.22026655,0.14365210,10.14183807,-0.00319579,-0.02556635,-0.00426106
1691757110619397,-0.02873042,0.05267244,9.92157173,-0.00852212,-0.02130529,-0.01917476
1691757110621349,0.17717093,0.29688102,9.89762974,-0.00745685,-0.03621899,-0.01810949
1691757110623474,-0.14365210,0.19632454,10.21366405,-0.00745685,-0.05965481,0.00106526
1691757110625319,0.17717093,0.30645782,10.01255131,0.01491370,-0.04687164,0.00319579
1691757110627326,-0.11492168,0.23942018,10.25197124,0.01491370,-0.06178534,0.01384844
1691757110629335,-0.02394202,0.17717093,10.06043530,0.01065264,-0.07137272,0.02024002
1691757110631325,-0.02394202,0.29688102,10.23760605,0.00213053,-0.06817693,0.02343582
1691757110633317,-0.26336220,0.24420857,10.26633644,0.00319579,-0.06178534,0.00852212
1691757110635345,0.12449849,0.31124622,10.01733971,0.02982740,-0.04793690,0.01065264
1691757110637508,-0.22026655,0.24899697,10.24718285,0.04900216,-0.01065264,0.02130529
1691757110639310,-0.19632454,0.13407530,10.01733971,0.03728426,0.03408846,0.02130529
1691757110641413,-0.08619126,0.24420857,10.06043530,0.04261058,0.07137272,0.01704423
1691757110643333,-0.48362875,0.15322891,10.14183807,0.04474111,0.10972223,0.01278317
1691757110645398,-0.10055647,0.31603462,9.90720654,0.03089267,0.10759171,0.01597897
1691757110647349,-0.27293900,0.27772740,10.11789608,0.02450108,0.11824435,0.00852212
1691757110649293,-0.18674773,0.12928689,9.92157173,0.05113269,0.11717909,-0.00532632
1691757110651383,0.06224924,0.28251579,9.89762974,0.03195793,0.10013486,-0.02130529
1691757110653372,-0.35913026,0.06703765,10.07480049,0.00745685,0.06924219,-0.02024002
1691757110655370,-0.06703765,0.17717093,9.83059216,0.00000000,0.08415589,-0.01384844
1691757110657377,-0.12449849,0.23463176,9.99339771,0.02556635,0.09267800,-0.01171791
1691757110659353,-0.12928689,0.20590134,9.94072533,0.03621899,0.10120012,0.00213053
1691757110661380,0.07661445,0.35913026,9.82101536,0.03941479,0.11930962,0.01065264
1691757110663450,-0.25857377,0.18674773,9.96466732,0.04687164,0.17044231,0.00532632
1691757110665328,-0.09097967,0.42137951,9.79228497,0.06817693,0.18855180,0.00532632
1691757110667335,-0.29688102,0.36870706,9.89762974,0.06817693,0.18855180,0.01065264
1691757110669339,-0.38786069,0.15322891,9.89762974,0.06924219,0.19387813,-0.00745685
1691757110671356,0.01915361,0.29209262,9.78270817,0.08309063,0.19494340,-0.01171791
1691757110673365,-0.18195933,0.15322891,9.96466732,0.10226539,0.15126754,0.00213053
1691757110675318,-0.02873042,0.32561144,9.81143856,0.07243798,0.10759171,0.01597897
1691757110677353,-0.06703765,0.25857377,9.88805294,0.04261058,0.07350325,-0.00319579
1691757110679401,-0.05267244,0.08140286,9.88326454,0.04367584,0.04474111,0.00532632
1691757110681349,0.20590134,0.29209262,9.71567059,0.03089267,0.02130529,-0.00639159
1691757110683347,0.03351882,0.14365210,9.93114853,0.01171791,-0.00319579,-0.00106526
1691757110685334,0.16759412,0.27772740,9.81143856,0.00532632,-0.01491370,0.01384844
1691757110687381,-0.06224924,0.12928689,9.88805294,0.00319579,-0.00745685,0.00958738
1691757110689345,-0.00478840,0.18195933,9.91199493,0.00106526,-0.01278317,0.00319579
1691757110691430,0.06224924,0.12449849,9.88805294,0.00639159,-0.04048005,-0.00213053
1691757110693348,-0.15322891,0.08140286,10.05085850,0.00000000,-0.02450108,-0.01384844
1691757110695505,-0.00478840,0.30166942,9.97903252,-0.00213053,-0.03941479,-0.03195793
1691757110697344,0.03351882,0.21068975,10.06043530,0.00852212,-0.05965481,-0.02556635
1691757110699324,0.00957681,0.26815060,10.15620327,0.00426106,-0.06604639,-0.02450108
1691757110701347,0.00000000,0.18674773,10.07480049,-0.00426106,-0.06817693,-0.03089267
1691757110703405,-0.09576806,0.13886370,10.13704967,-0.00213053,-0.06817693,-0.00745685
1691757110705363,-0.05267244,0.24899697,10.07480049,0.00213053,-0.06178534,0.00000000
1691757110707329,-0.04788403,0.22984336,10.09395409,0.02450108,-0.04900216,0.01597897
1691757110709339,0.04309563,0.34955344,10.08437729,0.03621899,-0.02769688,0.01171791
1691757110711486,-0.05267244,0.22984336,9.99818611,0.04580637,-0.00639159,0.02450108
1691757110713379,-0.06224924,0.27293900,10.03649330,0.04900216,0.01171791,0.00958738
1691757110715391,-0.17717093,0.16280572,9.99818611,0.04900216,0.01704423,0.01171791
1691757110717313,-0.24420857,0.13886370,10.04607010,0.02876214,0.02876214,0.01065264
1691757110719325,-0.14365210,0.19632454,10.00776291,0.02769688,0.03941479,-0.00106526
1691757110721266,-0.08619126,0.22984336,9.97903252,0.03621899,0.05326322,-0.00213053
1691757110723323,-0.17717093,0.30166942,10.07001209,0.01491370,0.05219796,-0.01491370
1691757110725315,-0.11492168,0.22505496,9.91678333,0.00532632,0.05539375,-0.01917476
1691757110727333,-0.24420857,0.19153613,9.99818611,0.00852212,0.06285060,-0.02450108
1691757110729325,-0.15322891,0.17717093,9.97903252,0.02556635,0.06391586,-0.01917476
1691757110731359,-0.05267244,0.13886370,9.91199493,0.01810949,0.04793690,-0.03089267
1691757110733315,-0.20590134,0.22505496,10.05564690,0.02343582,0.03089267,-0.03621899
1691757110735358,-0.04309563,0.29209262,9.92157173,0.03728426,0.02450108,-0.02343582
1691757110737371,-0.13407530,0.31603462,9.97424412,0.02343582,0.01917476,-0.02663161
1691757110739308,-0.10055647,0.31124622,9.93593693,0.03728426,0.00639159,-0.01704423
1691757110741403,-0.03351882,0.13886370,9.87368774,0.04900216,0.01171791,-0.00426106
1691757110743313,-0.22026655,0.18674773,10.01733971,0.04687164,0.04687164,0.00639159
1691757110745405,-0.04309563,0.23463176,9.82580376,0.03515373,0.05965481,0.00532632
1691757110747351,-0.18195933,0.26815060,9.88805294,0.03302320,0.08096009,0.00852212
1691757110749341,-0.24899697,0.36391866,9.87368774,0.02450108,0.10439591,0.00000000
1691757110751331,-0.08619126,0.24420857,9.77791977,0.03089267,0.10972223,0.00000000
1691757110753620,-0.32082301,0.17238252,9.95987892,0.04580637,0.10120012,0.00213053
1691757110755331,-0.10534488,0.14365210,9.77313137,0.03834952,0.08628642,-0.01171791
1691757110757333,-0.16280572,0.11492168,9.84974575,0.03621899,0.06924219,-0.01810949
1691757110759301,-0.19632454,0.31124622,9.86411095,0.03089267,0.05113269,-0.01065264
1691757110761386,0.14844051,0.29209262,9.70609379,0.01704423,0.03621899,-0.00639159
1691757110763464,-0.11971009,0.16759412,9.86411095,-0.00958738,0.01704423,-0.02024002
1691757110765312,0.07182605,0.19153613,9.67736340,-0.02024002,0.01704423,-0.01171791
1691757110767329,-0.02873042,0.07661445,9.73961258,-0.01384844,0.01704423,-0.00426106
1691757110769318,-0.17717093,0.27772740,9.79707336,-0.01384844,0.02237055,0.00958738
1691757110771440,0.12928689,0.34955344,9.66778660,-0.01491370,0.02343582,0.01384844
1691757110773326,-0.14365210,0.18195933,9.84974575,-0.01491370,0.03728426,0.02024002
1691757110775314,0.01436521,0.32082301,9.64384460,-0.01810949,0.04154531,0.00000000
1691757110777343,-0.01915361,0.08140286,9.75876617,-0.02024002,0.04048005,0.00532632
1691757110779338,-0.31124622,0.15322891,9.87368774,-0.01491370,0.04474111,-0.00532632
1691757110781381,0.00957681,0.40701428,9.75397778,-0.00426106,0.03408846,-0.00213053
1691757110783343,-0.16280572,0.17238252,9.93114853,0.00213053,0.01597897,-0.01704423
1691757110785367,-0.26336220,0.15801731,9.87847614,0.00426106,0.01171791,-0.00319579
1691757110787360,0.10534488,0.29209262,9.73961258,-0.00213053,0.00319579,-0.00958738
1691757110789327,-0.19632454,0.17238252,9.90241814,-0.01491370,-0.01597897,0.00426106
1691757110791313,0.02873042,0.38307226,9.82580376,-0.01278317,-0.01917476,-0.00639159
1691757110793344,-0.07661445,0.09097967,10.01255131,-0.00745685,-0.01278317,-0.00426106
1691757110795434,-0.21547815,0.13407530,10.00776291,-0.02343582,-0.01597897,-0.01384844
1691757110797329,0.07661445,0.23463176,10.00297451,-0.03728426,-0.01491370,-0.01171791
1691757110799306,-0.15801731,-0.00478840,10.13226128,-0.02982740,-0.02024002,-0.01917476
1691757110801312,-0.03351882,0.31603462,10.11789608,-0.01810949,-0.03515373,-0.01917476
1691757110803398,-0.15322891,-0.02873042,10.32858658,-0.02237055,-0.04367584,-0.01810949
1691757110805267,-0.21547815,0.19153613,10.32379818,-0.01917476,-0.04580637,-0.01917476
1691757110807357,0.06224924,0.26336220,10.28070164,-0.02237055,-0.04154531,-0.01171791
1691757110809309,-0.14844051,-0.01915361,10.39083576,-0.01917476,-0.04048005,-0.00639159
1691757110811438,-0.07182605,0.31603462,10.29506683,-0.02024002,-0.03834952,0.00426106
1691757110813361,0.03351882,0.29688102,10.28070164,-0.02237055,-0.02343582,0.00639159
1691757110815344,-0.21547815,0.24899697,10.38604736,-0.02982740,-0.00745685,0.00213053
1691757110817324,0.01915361,0.47405192,10.17535686,-0.03089267,-0.00532632,0.00426106
1691757110819363,-0.23463176,0.00478840,10.36210537,-0.01704423,-0.00213053,0.01171791
1691757110821444,-0.17238252,0.20590134,10.32379818,-0.00426106,-0.00213053,0.00532632
1691757110823347,-0.18195933,0.03830723,10.37647057,-0.03089267,-0.01278317,-0.00106526
1691757110825374,-0.13886370,0.16759412,10.30464458,-0.03515373,-0.01384844,0.00000000
1691757110827369,0.05267244,0.47405192,10.21845245,-0.02556635,-0.01704423,-0.00426106
1691757110829334,-0.13407530,0.04309563,10.38125896,-0.03195793,-0.02663161,-0.01065264
1691757110831356,0.13407530,0.53630120,10.22324085,-0.06178534,-0.01917476,-0.00532632
1691757110833423,0.00000000,0.15322891,10.27112484,-0.05432849,-0.02556635,-0.00106526
1691757110835346,-0.10055647,0.19153613,10.28549004,-0.04793690,-0.02982740,-0.01917476
1691757110837408,0.11492168,0.54108959,10.20887566,-0.05752428,-0.02982740,-0.02663161
1691757110839402,-0.08619126,0.12449849,10.32379818,-0.05006743,-0.04793690,-0.02024002
1691757110841332,-0.08140286,0.24899697,10.29506683,-0.03195793,-0.06072007,-0.00852212
1691757110843356,-0.01436521,0.15801731,10.28070164,-0.02769688,-0.07350325,-0.02237055
1691757110845411,-0.18674773,0.09576806,10.37647057,-0.03621899,-0.07456851,-0.02343582
1691757110847359,0.07182605,0.43574470,10.20887566,-0.03621899,-0.06817693,-0.01810949
1691757110849321,-0.08140286,0.13407530,10.24718285,-0.02769688,-0.04154531,-0.02769688
1691757110851345,-0.04788403,0.33518824,10.14183807,-0.00852212,-0.00745685,-0.01278317
1691757110853395,-0.07661445,0.25378537,10.00776291,-0.01491370,0.05006743,0.00426106
1691757110855375,-0.11492168,0.30645782,10.05564690,-0.02130529,0.08735169,0.00532632
1691757110857359,-0.19632454,0.30645782,9.95030212,-0.02024002,0.09587380,0.00958738
1691757110859336,-0.32082301,0.11971009,9.99339771,-0.02769688,0.11078750,0.00852212
1691757110861383,-0.18195933,0.30166942,10.02691650,-0.02024002,0.09800433,0.01491370
1691757110863353,0.05746084,0.30645782,9.87847614,-0.00319579,0.07776430,-0.00213053
1691757110865324,-0.09097967,0.20111294,9.95987892,0.00213053,0.06178534,0.02237055
1691757110867363,-0.00478840,0.31124622,9.91199493,-0.01065264,0.04474111,-0.00958738
1691757110869383,-0.10055647,0.09097967,9.93593693,-0.02556635,0.00958738,0.01491370
1691757110871373,-0.04309563,0.12449849,9.91199493,-0.04154531,-0.00426106,0.00213053
1691757110873383,0.18674773,0.21547815,9.84016895,-0.03408846,-0.00852212,0.00213053
1691757110875326,0.03351882,0.09576806,9.93114853,-0.02130529,0.00745685,-0.00319579
1691757110877359,0.12928689,0.41659111,9.78749657,-0.02876214,0.04048005,0.01065264
1691757110879409,-0.06703765,0.23942018,9.71088219,-0.02024002,0.06711166,0.01278317
1691757110881379,-0.22505496,0.19632454,9.78270817,0.00532632,0.09267800,-0.00106526
1691757110883398,-0.14844051,0.30166942,9.73482418,0.00106526,0.11824435,0.02130529
1691757110885325,-0.25857377,0.23942018,9.74440098,-0.02024002,0.11611383,0.00106526
1691757110887395,-0.13886370,0.26815060,9.62469101,-0.00639159,0.10652644,0.00426106
1691757110889316,-0.04788403,0.23942018,9.69172859,0.00319579,0.08948221,-0.02024002
1691757110891345,-0.03351882,0.26336220,9.72045898,-0.00639159,0.06604639,0.00213053
1691757110893349,0.00478840,0.44053310,9.68215179,-0.01491370,0.05432849,-0.01704423
1691757110895390,-0.15322891,0.11971009,9.73482418,0.00106526,0.02343582,-0.00106526
1691757110897367,0.02394202,0.23942018,9.64384460,-0.00639159,0.00852212,-0.02556635
1691757110899322,0.03830723,0.22505496,9.73003578,-0.00319579,0.00745685,-0.00319579
1691757110901362,0.04309563,0.20590134,9.73003578,-0.01704423,0.01278317,0.00106526
1691757110903325,0.11492168,0.36870706,9.67257500,-0.01597897,0.02024002,0.00745685
1691757110905363,-0.14365210,0.08619126,9.78749657,-0.02130529,0.06285060,-0.00213053
1691757110907354,-0.04309563,0.26815060,9.74440098,-0.01917476,0.07456851,0.00319579
1691757110909300,-0.08140286,0.22505496,9.80186176,-0.03089267,0.08948221,0.01065264
1691757110911401,-0.27293900,0.05746084,9.84974575,-0.03834952,0.07989483,-0.00319579
1691757110913408,-0.07182605,0.30166942,9.75876617,-0.03195793,0.07137272,-0.00639159
1691757110915337,-0.18195933,0.18674773,9.90241814,-0.02450108,0.04793690,0.00000000
1691757110917407,-0.03830723,0.30166942,9.83059216,-0.02982740,0.03089267,-0.00852212
1691757110919337,-0.04309563,0.13886370,9.91678333,-0.02769688,-0.01384844,-0.01704423
1691757110921497,-0.12449849,0.06224924,9.89762974,-0.01384844,-0.02982740,0.00319579
1691757110923339,0.13407530,0.28730419,9.83059216,-0.00852212,-0.05432849,0.01384844
1691757110925320,0.08619126,0.31603462,9.90720654,-0.00106526,-0.07030746,0.00532632
1691757110927323,0.09576806,0.31124622,9.74918938,0.00958738,-0.08096009,0.00852212
1691757110929391,0.17717093,0.33518824,9.77791977,0.01704423,-0.08841695,0.00852212
1691757110931381,0.13886370,0.22505496,9.86411095,0.00106526,-0.11185277,0.00000000
1691757110933355,0.01915361,0.26336220,9.83538055,-0.00745685,-0.11398330,0.01597897
1691757110935360,-0.05267244,0.20590134,9.93593693,-0.02237055,-0.11398330,0.02663161
1691757110937389,0.05267244,0.16759412,9.89284134,-0.01917476,-0.11824435,0.01917476
1691757110939322,0.15801731,0.38307226,9.88326454,-0.01171791,-0.10652644,0.03728426
1691757110941353,-0.08619126,0.09576806,9.99818611,-0.03302320,-0.08628642,0.04793690
1691757110943351,-0.06703765,0.15801731,9.83059216,-0.02450108,-0.07669904,0.01704423
1691757110945391,-0.27772740,0.14365210,9.96466732,-0.02343582,-0.03834952,0.02556635
1691757110947382,-0.28251579,0.09576806,9.89284134,-0.01810949,-0.00852212,0.01065264
1691757110949303,-0.12449849,0.32082301,9.78270817,-0.00745685,0.03195793,0.01597897
1691757110951335,-0.23942018,0.15801731,9.90241814,0.01171791,0.07669904,0.01917476
1691757110953389,-0.11013328,0.30166942,9.69172859,0.02024002,0.11717909,0.00852212
1691757110955384,-0.19632454,0.35913026,9.83059216,0.02343582,0.15020229,-0.00213053
1691757110957390,-0.33518824,-0.01436521,9.81622696,0.04900216,0.16085494,-0.00426106
1691757110959326,-0.14365210,0.34955344,9.64384460,0.05645901,0.15126754,0.00000000
1691757110961470,-0.36870706,0.11492168,9.83059216,0.05113269,0.12463594,-0.00852212
1691757110963381,-0.17238252,0.12928689,9.69651699,0.03728426,0.10865697,0.03621899
1691757110965325,-0.01436521,0.37349546,9.82580376,0.03195793,0.07563377,0.01810949
1691757110967372,-0.13407530,0.02394202,9.92157173,0.02024002,0.05219796,0.02450108
1691757110969322,0.18674773,0.38786069,9.75397778,-0.00319579,0.02237055,-0.00532632
1691757110971505,-0.01915361,-0.08140286,10.00776291,-0.00852212,-0.00639159,0.01171791
1691757110973359,0.07661445,-0.14365210,9.89284134,-0.00852212,-0.01810949,-0.00426106
1691757110975554,0.16280572,0.20590134,9.94551373,-0.01917476,-0.02982740,0.01065264
1691757110977349,0.09097967,0.00478840,9.91199493,-0.03089267,-0.03621899,0.01491370
1691757110979399,0.24899697,0.29688102,9.84974575,-0.02343582,-0.03834952,0.00852212
1691757110981368,-0.04788403,0.33039984,10.01733971,-0.01917476,-0.03515373,0.00639159
1691757110983381,0.05746084,0.12928689,9.88326454,-0.00213053,-0.04793690,-0.00213053
1691757110985342,0.06703765,0.28251579,9.92157173,0.01704423,-0.05326322,0.01704423
1691757110987357,-0.18195933,0.03830723,10.07480049,0.02024002,-0.06391586,0.00426106
1691757110989327,0.13407530,0.20590134,9.87847614,0.02237055,-0.07137272,0.01917476
1691757110991350,-0.09576806,0.34955344,10.07958889,0.02024002,-0.08628642,0.00958738
1691757110993328,0.03351882,0.20590134,9.92157173,0.00852212,-0.09480853,0.00852212
1691757110995389,0.11971009,0.31124622,9.90241814,0.00000000,-0.08735169,0.00532632
1691757110997502,-0.17717093,0.13886370,10.02691650,-0.00958738,-0.07989483,0.00532632
1691757110999314,0.16759412,0.26336220,9.84495735,-0.03302320,-0.06817693,0.01278317
1691757111001355,-0.13886370,0.26815060,10.00776291,-0.03728426,-0.06391586,0.00639159
1691757111003375,-0.05746084,0.14365210,9.94072533,-0.03195793,-0.05326322,-0.01278317
1691757111005355,-0.17717093,0.22984336,10.02691650,-0.02237055,-0.05645901,-0.02130529
1691757111007337,-0.22026655,0.25857377,10.09395409,-0.02556635,-0.05752428,-0.01597897
1691757111009303,0.02394202,0.18195933,9.85453415,-0.01917476,-0.06498113,-0.00106526
1691757111011399,-0.13886370,0.24899697,10.07480049,-0.02450108,-0.07456851,-0.01704423
1691757111013342,-0.00957681,0.19632454,9.88805294,-0.01384844,-0.06391586,-0.01810949
1691757111015380,0.08140286,0.25378537,9.97903252,-0.00745685,-0.06072007,-0.00532632
1691757111017367,-0.22026655,0.32082301,10.22324085,0.01278317,-0.03941479,0.00000000
1691757111019356,-0.01436521,0.23463176,9.92157173,0.02343582,-0.00639159,-0.00532632
1691757111021357,-0.11013328,0.33518824,10.02212811,0.02556635,0.02556635,0.00319579
1691757111023485,-0.27772740,0.21547815,10.01255131,0.01171791,0.02663161,0.00000000
1691757111025332,-0.11013328,0.26815060,10.04128170,-0.00426106,0.01597897,-0.00426106
1691757111027349,-0.22026655,0.22026655,10.03649330,-0.01065264,-0.00426106,-0.01704423
1691757111029379,-0.03830723,0.09097967,9.89284134,-0.01597897,-0.01597897,-0.01491370
1691757111031341,0.05267244,0.26815060,9.95030212,-0.02556635,-0.06711166,-0.00852212
1691757111033391,-0.11013328,0.25378537,9.97903252,-0.02130529,-0.08096009,-0.00639159
1691757111035331,0.23942018,0.06703765,9.81143856,-0.02556635,-0.11185277,-0.00852212
1691757111037409,-0.07182605,0.14844051,10.06043530,-0.02450108,-0.14700650,0.00000000
1691757111039320,0.06703765,0.22026655,9.90241814,-0.02876214,-0.16405073,0.00106526
1691757111041337,0.15322891,0.16280572,9.92157173,-0.02450108,-0.15020229,-0.00106526
1691757111043509,-0.04788403,0.41659111,9.94551373,-0.02450108,-0.11611383,-0.00532632
1691757111045397,0.01436521,0.18195933,9.81143856,-0.01491370,-0.05539375,0.00213053
1691757111047347,-0.27772740,0.45489833,9.87368774,-0.00106526,-0.01278317,-0.00852212
1691757111049311,-0.18195933,0.21547815,9.73482418,0.02024002,0.00319579,0.00852212
1691757111051354,-0.23463176,0.29688102,9.84974575,0.03621899,0.05539375,0.00106526
1691757111053421,-0.47405192,0.30166942,9.82101536,0.03195793,0.04580637,0.02024002
1691757111055385,-0.21068975,0.11971009,9.61032581,0.02450108,0.03515373,0.01065264
1691757111057365,-0.26336220,0.18674773,9.73482418,0.01384844,0.02982740,0.02663161
1691757111059405,-0.10055647,0.28730419,9.72524738,0.00745685,0.00426106,0.00745685
1691757111061380,0.09576806,0.12928689,9.66299820,-0.01704423,-0.00745685,-0.00213053
1691757111063330,-0.16280572,0.29209262,9.80665016,-0.01704423,-0.01065264,-0.01171791
1691757111065340,0.11492168,0.05746084,9.71567059,-0.02237055,0.00213053,0.00213053
1691757111067334,-0.01436521,0.10534488,9.75876617,-0.02663161,-0.00639159,-0.00106526
1691757111069341,-0.01915361,0.21547815,9.85453415,-0.02982740,0.00319579,-0.00319579
1691757111071357,0.02394202,0.01436521,9.77791977,-0.02024002,-0.00745685,-0.01917476
1691757111073390,0.03830723,0.31124622,9.80186176,-0.02130529,-0.05006743,-0.00958738
1691757111075331,0.03830723,0.34476504,9.77791977,-0.02876214,-0.06817693,-0.00852212
1691757111077369,-0.03351882,0.04309563,9.81622696,-0.01384844,-0.10759171,-0.00106526
1691757111079369,0.04788403,0.32561144,9.79707336,-0.02450108,-0.11824435,-0.00745685
1691757111081322,0.12449849,0.04309563,9.68694019,-0.03515373,-0.13102752,0.00745685
1691757111083327,0.00478840,0.29209262,9.73482418,-0.02876214,-0.15233281,-0.00426106
1691757111085331,0.13886370,0.38307226,9.69651699,-0.01704423,-0.15339808,-0.00213053
1691757111087357,0.01436521,0.15801731,9.73482418,-0.04367584,-0.11930962,0.00213053
1691757111089309,0.00478840,0.33518824,9.57680702,-0.03089267,-0.09587380,-0.00319579
1691757111091328,0.00957681,0.19632454,9.60553741,-0.00852212,-0.06391586,-0.00106526
1691757111093348,-0.19632454,0.17238252,9.69651699,-0.01384844,0.00852212,-0.00852212
1691757111095401,-0.16759412,0.33039984,9.57201862,0.00852212,0.03515373,-0.01065264
1691757111097418,-0.39264908,0.02873042,9.61990261,0.00639159,0.04900216,0.00106526
1691757111099306,-0.34955344,0.37828386,9.56723022,0.01384844,0.05858954,0.00745685
1691757111101333,-0.26815060,0.30645782,9.53849983,0.02663161,0.10013486,-0.00532632
1691757111103403,-0.24899697,0.27772740,9.69172859,0.05006743,0.09693906,-0.00213053
1691757111105363,0.01436521,0.39264908,9.57201862,0.04900216,0.09480853,0.00532632
1691757111107330,-0.21068975,0.24420857,9.64384460,0.05219796,0.12676647,-0.01597897
1691757111109362,-0.06224924,0.23463176,9.53371143,0.07137272,0.15765914,-0.01278317
1691757111111421,-0.09097967,0.28730419,9.50976944,0.07563377,0.18002969,-0.00745685
1691757111113390,-0.31124622,0.29688102,9.64384460,0.07563377,0.18322548,-0.00319579
1691757111115333,-0.16280572,0.19632454,9.48582745,0.08522116,0.20772657,-0.01384844
1691757111117331,-0.21547815,0.15801731,9.59596062,0.07030746,0.23968449,0.00000000
1691757111119341,-0.23463176,0.17238252,9.75876617,0.07776430,0.22903186,0.00532632
1691757111121454,0.00478840,0.10534488,9.53849983,0.06817693,0.21731395,0.01065264
1691757111123344,-0.13886370,0.21547815,9.75876617,0.06391586,0.18109496,0.00532632
1691757111125358,0.01915361,0.15801731,9.74440098,0.04900216,0.14061491,0.01597897
1691757111127331,0.20111294,0.15801731,9.70130539,0.02024002,0.06924219,0.02343582
1691757111129370,-0.02394202,0.00478840,9.87368774,0.00426106,0.01704423,0.02237055
1691757111131417,0.30645782,0.05267244,9.82101536,0.00106526,-0.02237055,0.02024002
1691757111133332,0.22984336,0.20111294,9.96466732,-0.01384844,-0.06604639,0.01278317
1691757111135353,0.29688102,0.20590134,9.97424412,-0.03834952,-0.08202536,0.00745685
1691757111137405,0.28251579,0.14365210,9.94551373,-0.03408846,-0.10865697,0.00106526
1691757111139422,-0.02873042,0.11013328,10.01733971,-0.03621899,-0.10333065,-0.00532632
1691757111141333,0.19632454,0.19632454,9.92157173,-0.02663161,-0.10546118,0.00319579
1691757111143326,0.00957681,-0.01436521,10.08437729,-0.01704423,-0.07456851,0.00426106
1691757111145422,0.07182605,0.27293900,10.01255131,-0.02024002,-0.07350325,0.00745685
1691757111147354,0.13407530,0.26336220,10.01255131,-0.00532632,-0.04900216,-0.00532632
1691757111149325,-0.24899697,0.26336220,10.15620327,-0.01384844,-0.02663161,0.00000000
1691757111151342,-0.02394202,0.42616791,9.98860931,-0.00852212,-0.01384844,-0.01597897
1691757111153407,-0.28251579,-0.01436521,10.14662647,-0.00745685,0.00426106,-0.00852212
1691757111155331,-0.23942018,0.22984336,10.03649330,0.00213053,0.00745685,-0.00852212
1691757111157355,-0.06224924,0.12449849,9.98860931,-0.00639159,0.04687164,-0.01171791
1691757111159306,-0.32561144,0.17238252,10.12747288,-0.00213053,0.07989483,-0.00745685
1691757111161389,-0.03351882,0.47884035,9.89762974,0.02024002,0.08522116,-0.00426106
1691757111163351,-0.22505496,0.09576806,10.04128170,0.02556635,0.10439591,-0.00319579
1691757111165394,-0.09097967,0.41180268,9.88326454,0.03408846,0.10226539,0.00213053
1691757111167334,-0.17238252,0.01915361,9.98860931,0.03941479,0.07776430,0.02237055
1691757111169327,-0.29688102,0.00957681,9.99818611,0.03621899,0.06391586,0.03302320
1691757111171363,-0.07182605,0.34955344,9.90241814,0.03089267,0.06072007,0.02343582
1691757111173359,-0.03830723,-0.07182605,9.99818611,0.01810949,0.02876214,0.02024002
1691757111175352,0.00478840,0.35913026,10.00297451,-0.00213053,0.01917476,0.01810949
1691757111177347,0.14365210,0.11492168,9.97424412,-0.00639159,0.01597897,0.01597897
1691757111179400,-0.05746084,0.08140286,10.07958889,-0.00426106,-0.00426106,0.01384844
1691757111181336,0.03351882,0.40701428,10.03649330,-0.01917476,-0.00852212,0.01384844
1691757111183322,-0.03830723,-0.19153613,10.06522369,-0.02769688,-0.02876214,-0.00106526
1691757111185338,0.00478840,0.22984336,10.11310768,-0.02876214,-0.03728426,-0.00639159
1691757111187366,0.11492168,0.12928689,10.14662647,-0.02343582,-0.04687164,-0.01597897
1691757111189334,0.00478840,0.15322891,10.18972206,-0.03621899,-0.07882957,-0.01065264
1691757111191329,0.08619126,0.50278234,10.18972206,-0.03834952,-0.08522116,-0.01491370
1691757111193341,-0.02873042,-0.10055647,10.21366405,-0.03302320,-0.08096009,-0.01597897
1691757111195422,-0.02394202,0.25857377,10.17056847,-0.01810949,-0.07669904,-0.00639159
1691757111197367,-0.02394202,0.11971009,10.15620327,-0.02130529,-0.07456851,0.00532632
1691757111199311,-0.06224924,0.09576806,10.15620327,-0.01917476,-0.05645901,0.00532632
1691757111201419,0.03830723,0.51235914,10.13226128,-0.01278317,-0.05113269,0.01171791
1691757111203382,-0.05746084,0.00478840,10.14662647,-0.02556635,-0.05113269,0.00106526
1691757111205333,-0.00957681,0.35913026,10.08437729,-0.02769688,-0.05858954,0.00958738
1691757111207353,-0.17238252,0.14365210,10.11789608,-0.03089267,-0.05432849,-0.00426106
1691757111209325,-0.21547815,0.01436521,10.07001209,-0.02556635,-0.04793690,-0.00106526
1691757111211403,-0.02394202,0.50278234,10.05564690,-0.01491370,-0.05113269,-0.00319579
1691757111213369,-0.13407530,0.02873042,10.10831928,0.00958738,-0.05219796,-0.00852212
1691757111215338,0.08619126,0.39264908,9.97903252,0.00426106,-0.04580637,-0.02556635
1691757111217331,-0.04309563,0.30645782,10.05564690,-0.00639159,-0.05006743,-0.01917476
1691757111219326,-0.15801731,0.03351882,10.00776291,-0.01810949,-0.06711166,-0.00532632
1691757111221358,-0.02394202,0.38786069,10.01733971,-0.02130529,-0.07137272,0.00319579
1691757111223343,-0.25378537,-0.11971009,10.11789608,-0.02237055,-0.07776430,-0.00213053
1691757111225330,0.10534488,0.24899697,9.91199493,-0.02450108,-0.08202536,0.01278317
1691757111227361,0.00000000,0.29688102,10.04607010,-0.03089267,-0.08522116,0.01810949
1691757111229356,-0.03830723,0.11492168,10.01733971,-0.03195793,-0.08096009,0.00639159
1691757111231340,0.15801731,0.50757074,9.97424412,-0.03515373,-0.07350325,-0.00319579
1691757111233380,-0.25857377,0.02394202,10.14662647,-0.03089267,-0.06178534,-0.00106526
1691757111235334,-0.05746084,0.17238252,9.91199493,-0.04048005,-0.03941479,-0.01384844
1691757111237426,-0.18195933,0.21547815,10.06043530,-0.05326322,0.00639159,-0.01171791
1691757111239351,-0.30166942,0.01436521,9.98860931,-0.04261058,0.03941479,-0.01065264
1691757111241417,0.04788403,0.44053310,9.88805294,-0.03089267,0.05539375,-0.01278317
1691757111243366,-0.29688102,0.11013328,10.12747288,-0.03728426,0.05965481,-0.02663161
1691757111245419,-0.04788403,0.24899697,9.82580376,-0.03728426,0.06498113,-0.01810949
1691757111247434,-0.06224924,0.28730419,9.89284134,-0.02556635,0.03728426,-0.02450108
1691757111249316,-0.35434186,0.03830723,9.86889935,0.00213053,0.03302320,-0.02343582
1691757111251354,0.09097967,0.42137951,9.68215179,0.00426106,0.02450108,-0.02237055
1691757111253406,-0.16759412,0.13886370,9.87847614,0.00852212,0.02237055,-0.01384844
1691757111255373,-0.00957681,0.21547815,9.62947941,0.00958738,0.01810949,0.00000000
1691757111257497,0.11013328,0.33997664,9.74918938,0.00532632,-0.00745685,0.00213053
1691757111259357,-0.16759412,0.20590134,9.79228497,0.00000000,-0.04154531,0.02343582
1691757111261406,0.19632454,0.39743748,9.59596062,0.00639159,-0.05858954,0.02237055
1691757111263556,-0.09097967,0.04788403,9.80186176,0.02024002,-0.09267800,0.00852212
1691757111265346,0.31603462,0.41659111,9.55286503,-0.00532632,-0.10652644,-0.02237055
1691757111267343,0.10055647,0.14844051,9.68215179,-0.00745685,-0.10652644,-0.01917476
1691757111269438,-0.19153613,0.02873042,9.77313137,-0.02663161,-0.12250541,-0.02130529
1691757111271384,0.18195933,0.33997664,9.54328823,-0.04367584,-0.11398330,-0.02130529
1691757111273487,0.02873042,0.19632454,9.74918938,-0.05539375,-0.07776430,-0.01384844
1691757111275338,0.05267244,0.22026655,9.61990261,-0.04793690,-0.07137272,-0.00852212
1691757111277368,0.08140286,0.30645782,9.54807663,-0.03941479,-0.02556635,0.00319579
1691757111279364,-0.31124622,0.12449849,9.69172859,-0.02663161,0.02663161,-0.00852212
1691757111281348,-0.20111294,0.32561144,9.43794346,-0.02450108,0.05113269,-0.00532632
1691757111283345,-0.34476504,0.25378537,9.54807663,-0.02237055,0.09374327,-0.00745685
1691757111285358,-0.35434186,0.11013328,9.58638382,-0.00106526,0.09906960,-0.01917476
1691757111287378,-0.11013328,0.33518824,9.49061584,0.00319579,0.09906960,-0.01917476
1691757111289350,-0.23942018,0.13886370,9.61032581,-0.00213053,0.08415589,-0.01171791
1691757111291344,-0.10534488,0.26336220,9.47625065,0.00958738,0.07563377,0.00106526
1691757111293406,-0.12928689,0.35434186,9.54328823,0.03834952,0.02556635,-0.01065264
1691757111295394,-0.07661445,0.20111294,9.54807663,0.02556635,0.02343582,0.00852212
1691757111297344,0.05267244,0.31124622,9.43794346,0.01491370,0.01278317,-0.01917476
1691757111299357,-0.09097967,0.00957681,9.53371143,0.01810949,-0.02450108,-0.01704423
1691757111301368,0.00478840,0.08619126,9.47146225,-0.01917476,-0.00745685,-0.02982740
1691757111303411,-0.09097967,0.28251579,9.54807663,-0.03089267,0.01810949,-0.00852212
1691757111305360,-0.00478840,0.18674773,9.49540424,-0.00958738,0.02024002,-0.00745685
1691757111307371,0.12449849,0.48841715,9.39963627,0.02024002,0.05752428,-0.00745685
1691757111309319,-0.13886370,0.27772740,9.56723022,0.00958738,0.07350325,-0.01917476
1691757111311388,-0.01436521,0.19153613,9.39963627,0.02130529,0.06178534,-0.01065264
1691757111313588,-0.13407530,0.24420857,9.48103905,0.01065264,0.04580637,-0.00852212
1691757111315404,0.04788403,0.22505496,9.33738708,0.00000000,0.01278317,-0.00426106
1691757111317502,-0.06703765,0.29688102,9.29429054,-0.00532632,0.00745685,-0.00852212
1691757111319361,-0.18195933,0.24420857,9.52413464,-0.00852212,-0.02343582,-0.00958738
1691757111321350,0.09576806,0.16759412,9.34217548,-0.02769688,-0.03834952,-0.00639159
1691757111323418,0.08619126,0.33039984,9.39484787,-0.03621899,-0.04474111,-0.01278317
1691757111325338,-0.03830723,0.12928689,9.54807663,-0.03834952,-0.04048005,-0.00213053
1691757111327362,0.11492168,0.20111294,9.34696388,-0.03941479,-0.04474111,-0.02343582
1691757111329321,-0.21547815,0.24899697,9.51934624,-0.02343582,-0.01810949,-0.00745685
1691757111331337,-0.13886370,0.13886370,9.40921307,-0.00958738,0.01810949,-0.00745685
1691757111333343,-0.70389527,0.00957681,9.57680702,0.00745685,0.05645901,0.00426106
1691757111335346,-0.78050977,-0.20590134,9.49061584,0.01917476,0.08841695,-0.00532632
1691757111337377,-0.67037648,-0.07182605,9.44273186,0.04793690,0.10226539,-0.00426106
1691757111339452,-0.82360536,-0.12928689,9.64384460,0.04048005,0.11930962,-0.00426106
1691757111341353,-0.46926352,-0.18674773,9.43794346,0.01704423,0.12250541,-0.00213053
1691757111343343,-0.48362875,0.04788403,9.66299820,0.00213053,0.11611383,0.01278317
1691757111345438,-0.48841715,-0.13407530,9.68215179,0.01597897,0.08735169,0.00000000
1691757111347339,-0.07661445,0.23942018,9.53849983,-0.00745685,0.08309063,-0.01065264
1691757111349348,-0.28251579,0.21547815,9.78749657,-0.02663161,0.05219796,-0.03408846
1691757111351338,-0.04788403,-0.04788403,9.62469101,-0.00639159,0.03515373,-0.01491370
1691757111353421,-0.03830723,0.21068975,9.71088219,-0.00639159,0.01917476,-0.02663161
1691757111355390,-0.21068975,0.05746084,9.79228497,-0.01065264,0.00532632,-0.02982740
1691757111357486,0.12449849,0.09576806,9.64863300,-0.01065264,-0.00426106,-0.02237055
1691757111359313,-0.22984336,0.10534488,9.81622696,-0.02343582,-0.00319579,-0.01171791
1691757111361395,0.03351882,0.22026655,9.69651699,-0.03941479,0.00958738,-0.01810949
1691757111363366,0.07182605,0.27772740,9.70609379,-0.02130529,0.02024002,0.01065264
1691757111365356,-0.26336220,0.18195933,9.83538055,-0.00213053,0.05219796,0.01278317
1691757111367384,-0.05746084,0.15801731,9.50976944,0.00106526,0.07456851,-0.01810949
1691757111369337,-0.25857377,0.24420857,9.81143856,0.03621899,0.10546118,-0.01597897
1691757111371453,-0.33518824,0.12928689,9.66299820,0.05752428,0.09054748,0.00000000
1691757111373385,-0.02394202,0.30645782,9.61511421,0.05965481,0.08415589,-0.01917476
1691757111375499,-0.24899697,0.23463176,9.89284134,0.03941479,0.07989483,-0.01065264
1691757111377384,0.06703765,0.20111294,9.62469101,0.03621899,0.06178534,0.01065264
1691757111379443,-0.07182605,0.22984336,9.81143856,0.03195793,0.04474111,-0.00213053
1691757111381374,-0.22026655,0.12449849,9.83059216,0.02237055,0.03728426,-0.01491370
1691757111383331,0.08619126,0.12449849,9.71088219,0.01597897,0.03089267,-0.00745685
1691757111385377,-0.21547815,0.15322891,9.97903252,-0.00319579,0.01704423,-0.01704423
1691757111387360,-0.03351882,0.14844051,9.77313137,-0.01597897,0.02769688,-0.01171791
1691757111389330,0.04788403,0.29688102,9.82580376,-0.01810949,0.05219796,-0.00106526
1691757111391338,-0.18674773,0.26815060,9.90241814,-0.00639159,0.07669904,0.02024002
1691757111393348,-0.00957681,0.25857377,9.72045898,0.00106526,0.10439591,-0.01065264
1691757111395417,-0.25857377,0.27772740,9.95509052,0.00958738,0.12889700,-0.02237055
1691757111397378,-0.04309563,0.24899697,9.73961258,0.02237055,0.13209279,-0.01171791
1691757111399329,-0.01915361,0.22026655,9.79707336,0.02130529,0.11930962,-0.01810949
1691757111401338,-0.28251579,0.25378537,9.98382092,0.01065264,0.10013486,-0.02130529
1691757111403406,0.01915361,0.17238252,9.81143856,0.00745685,0.08735169,-0.02237055
1691757111405424,-0.08619126,0.23463176,10.03170490,0.02024002,0.03941479,-0.00639159
1691757111407358,-0.06703765,0.22984336,9.95987892,0.01065264,0.03302320,-0.00639159
1691757111409334,0.13886370,0.12928689,9.86889935,0.00213053,0.02237055,-0.00532632
1691757111411495,-0.11971009,0.20590134,9.98860931,-0.01065264,0.02876214,-0.00319579
1691757111413362,0.07661445,0.22026655,9.72045898,-0.02343582,0.04474111,-0.00532632
1691757111415414,0.02873042,0.17717093,9.71567059,-0.01917476,0.04687164,-0.00852212
1691757111417343,0.00478840,0.30645782,9.50498104,-0.01065264,0.03621899,-0.01704423
1691757111419382,0.13886370,0.17717093,9.13627338,-0.00745685,0.02237055,-0.00106526
1691757111421385,-0.13886370,0.19632454,9.12190819,0.00532632,-0.01384844,-0.00213053
1691757111423339,0.00478840,0.26336220,8.74362469,0.01491370,-0.03195793,0.00745685
1691757111425365,-0.09576806,0.19632454,8.44674397,0.02450108,-0.08735169,-0.01065264
1691757111427366,-0.16759412,0.24420857,8.26957226,0.02663161,-0.09054748,-0.00426106
1691757111429382,0.01436521,0.30645782,7.92001915,0.03195793,-0.10333065,-0.01491370
1691757111431355,-0.21547815,0.26336220,7.77636719,0.02769688,-0.12037488,0.00213053
1691757111433342,-0.16759412,0.25378537,7.59919596,0.00745685,-0.07350325,-0.02130529
1691757111435501,-0.21547815,0.35434186,7.39808321,0.01704423,-0.10226539,-0.00852212
1691757111437531,-0.03830723,0.25857377,7.19218206,0.04367584,0.01704423,-0.00958738
1691757111439352,-0.07182605,0.23942018,7.15866327,0.05858954,0.02343582,-0.01171791
1691757111441447,-0.49799395,0.32561144,7.09162521,0.06711166,0.03941479,-0.01491370
1691757111443379,-0.45968673,0.37349546,6.93360806,0.08628642,0.16192019,-0.01597897
1691757111445414,-0.45489833,0.18674773,6.97191525,0.10226539,0.15765914,-0.00852212
1691757111447395,-0.47405192,0.15801731,6.87135887,0.11824435,0.21305288,-0.01171791
1691757111449355,-0.32561144,0.33039984,6.73728371,0.12463594,0.25672874,-0.02450108
1691757111451347,-0.34476504,0.14844051,6.85220528,0.12676647,0.21518342,-0.02769688
1691757111453422,-0.25857377,0.08140286,6.64151573,0.13209279,0.24820662,-0.01384844
1691757111455458,-0.18195933,0.29209262,6.56968927,0.13209279,0.19387813,-0.02130529
1691757111457397,-0.13886370,0.14365210,6.78995609,0.09693906,0.09906960,-0.01065264
1691757111459313,0.12449849,0.19153613,6.65588093,0.08948221,0.07776430,0.00213053
1691757111461393,0.00478840,0.30166942,6.55053568,0.06285060,0.00639159,-0.02024002
1691757111463413,0.16759412,0.33039984,6.72291851,0.07989483,-0.07456851,-0.02556635
1691757111465391,0.23942018,0.38786069,6.77080250,0.06285060,-0.16937704,-0.00745685
1691757111467342,0.10055647,0.16759412,6.62715054,0.05539375,-0.17683390,-0.00532632
1691757111469389,0.35913026,0.24899697,6.66066933,0.07882957,-0.22903186,-0.00319579
1691757111471417,0.34476504,0.26336220,6.86657047,0.04154531,-0.29507825,-0.01491370
1691757111473394,0.17238252,0.02394202,6.77559090,0.00000000,-0.27483824,0.01491370
1691757111475341,0.18195933,0.06703765,6.71334171,-0.02024002,-0.27803403,-0.00958738
1691757111477366,0.16280572,0.04788403,6.93360806,-0.00639159,-0.28549087,-0.00958738
1691757111479398,0.09097967,0.08140286,6.83784008,-0.02982740,-0.27270770,0.02450108
1691757111481389,-0.00478840,0.00957681,6.81389809,-0.07563377,-0.26312032,0.00426106
1691757111483339,-0.02394202,-0.03830723,7.02458763,-0.04367584,-0.24607609,0.02130529
1691757111485360,-0.04309563,0.17717093,6.91924286,-0.03515373,-0.22477080,0.01171791
1691757111487422,-0.13407530,0.15801731,6.95755005,-0.06178534,-0.19813919,0.01171791
1691757111489344,-0.11971009,0.05746084,7.15866327,-0.03195793,-0.19068234,0.01917476
1691757111491364,-0.15322891,0.16759412,7.10599041,-0.00213053,-0.16298546,-0.01065264
1691757111493364,-0.18674773,0.30645782,7.19218206,-0.00639159,-0.10652644,-0.00958738
1691757111495367,-0.14844051,0.18195933,7.32146883,-0.01597897,-0.10546118,-0.01597897
1691757111497362,-0.25378537,0.20590134,7.28316164,0.03302320,-0.04474111,-0.01278317
1691757111499360,-0.37349546,0.36870706,7.37414122,0.03728426,0.01704423,-0.02663161
1691757111501381,-0.33039984,0.19153613,7.51779318,0.04154531,0.04261058,-0.01384844
1691757111503414,-0.41659111,0.24899697,7.53215837,0.03408846,0.07350325,-0.02130529
1691757111505391,-0.53151280,0.28251579,7.58961916,0.04580637,0.10546118,-0.00745685
1691757111507404,-0.45489833,0.13886370,7.67581081,0.04793690,0.14061491,-0.02024002
1691757111509337,-0.35913026,0.21547815,7.70932961,0.04900216,0.14487596,0.00426106
1691757111511433,-0.33039984,0.10055647,7.76200199,0.04261058,0.10652644,0.00745685
1691757111513417,-0.28251579,-0.05746084,7.80988598,0.01810949,0.11930962,0.00213053
1691757111515368,-0.14365210,0.00957681,7.81946278,0.01491370,0.11930962,0.00106526
1691757111517343,-0.09097967,0.08140286,7.91523075,0.02876214,0.06924219,0.00106526
1691757111519352,-0.18195933,0.01436521,8.06845951,0.00532632,0.05858954,0.00000000
1691757111521404,-0.06224924,0.09576806,7.99663353,-0.01065264,0.07243798,-0.01597897
1691757111523400,-0.03351882,0.26815060,8.06367111,0.00106526,0.04367584,-0.00639159
1691757111525347,-0.17717093,0.16759412,8.20732307,-0.00213053,0.02663161,0.00745685
1691757111527374,-0.01915361,0.34476504,8.10197830,-0.01171791,0.02024002,-0.00319579
1691757111529355,-0.03830723,0.25378537,8.32224464,-0.00639159,0.02237055,-0.01171791
1691757111531355,-0.11492168,0.05267244,8.40843678,-0.01810949,0.01810949,-0.01597897
1691757111533343,0.11971009,0.32082301,8.25999546,-0.02982740,-0.00532632,-0.01171791
1691757111535378,-0.16280572,0.07661445,8.57603073,-0.00426106,-0.01384844,-0.00532632
1691757111537418,-0.16759412,0.09576806,8.56166553,-0.00532632,0.00106526,-0.00426106
1691757111539373,0.10055647,0.47884035,8.49462795,-0.00852212,-0.01384844,-0.00958738
1691757111541349,-0.20111294,0.14365210,8.75320148,-0.00426106,-0.02343582,0.00426106
1691757111543400,-0.05267244,0.28730419,8.63349152,0.00213053,-0.02130529,-0.00639159
1691757111545431,0.10055647,0.39743748,8.79150867,-0.00745685,-0.01384844,-0.01065264
1691757111547390,-0.16280572,-0.01436521,8.99262142,-0.03302320,-0.01491370,-0.01278317
1691757111549320,0.00000000,0.25857377,8.83939266,-0.03621899,-0.01810949,-0.01278317
1691757111551358,-0.13407530,0.15322891,9.05487061,-0.03408846,-0.00532632,-0.00639159
1691757111553503,-0.24899697,0.02873042,9.08360100,-0.03089267,-0.00319579,-0.00852212
1691757111555365,-0.07661445,0.41659111,8.99740982,-0.03408846,-0.00639159,0.00106526
1691757111557408,-0.28251579,0.11971009,9.23682976,-0.04048005,-0.00319579,-0.00426106
1691757111559320,-0.12928689,0.22984336,9.14106178,-0.03941479,0.00106526,0.00852212
1691757111561406,0.00000000,0.36870706,9.17936897,-0.02982740,0.00000000,0.02663161
1691757111563423,-0.15801731,0.00478840,9.38048267,-0.01491370,0.00319579,0.01810949
1691757111565347,-0.00957681,0.30645782,9.26077175,-0.02343582,0.02024002,0.01278317
1691757111567384,-0.16759412,0.19153613,9.39005947,-0.02024002,0.01278317,0.01704423
1691757111569351,-0.24899697,0.11492168,9.41878986,-0.02450108,0.00639159,0.00639159
1691757111571378,-0.12449849,0.39264908,9.34217548,-0.01810949,0.02130529,0.00213053
1691757111573405,-0.22984336,0.08140286,9.51934624,-0.02556635,0.03089267,0.00213053
1691757111575348,-0.04788403,0.19153613,9.40921307,-0.02769688,0.02663161,0.00852212
1691757111577385,-0.09097967,0.17717093,9.47146225,-0.01917476,0.02663161,0.00958738
1691757111579361,-0.20590134,0.02394202,9.62469101,-0.02130529,0.03302320,0.01704423
1691757111581403,-0.04788403,0.44053310,9.50498104,-0.01917476,0.04367584,0.01491370
1691757111583379,-0.23463176,0.19632454,9.62469101,-0.01597897,0.05432849,0.02024002
1691757111585390,-0.17717093,0.24420857,9.56244183,0.00745685,0.07137272,0.01384844
1691757111587383,-0.09097967,0.40701428,9.52413464,0.02130529,0.09480853,0.02024002
1691757111589335,-0.22505496,0.03830723,9.66299820,0.02237055,0.10972223,0.01491370
1691757111591359,-0.05746084,0.29209262,9.52413464,0.02663161,0.12783173,0.00639159
1691757111593348,-0.18195933,0.22026655,9.59117222,0.04474111,0.14700650,0.00106526
1691757111595416,-0.25857377,0.22505496,9.67736340,0.05113269,0.14700650,0.00426106
1691757111597409,-0.11971009,0.54108959,9.55765343,0.03302320,0.14168017,0.00213053
1691757111599365,-0.16759412,0.15322891,9.62469101,0.04474111,0.13848437,0.00639159
1691757111601347,0.01915361,0.27772740,9.52413464,0.05965481,0.12463594,0.02024002
1691757111603528,0.01915361,0.27772740,9.54807663,0.04261058,0.09906960,0.00000000
1691757111605367,-0.10055647,0.01436521,9.67257500,0.02556635,0.08628642,0.00639159
1691757111607344,0.04309563,0.33997664,9.54807663,0.01597897,0.07882957,-0.00958738
1691757111609342,-0.03830723,0.23463176,9.66299820,-0.00213053,0.06285060,-0.00319579
1691757111611403,0.03830723,0.27293900,9.71088219,-0.01171791,0.05113269,-0.00958738
1691757111613389,0.06224924,0.29209262,9.67736340,-0.00852212,0.05219796,-0.00319579
1691757111615593,-0.02394202,-0.06224924,9.73961258,-0.02237055,0.05432849,0.00106526
1691757111617349,0.04788403,0.20590134,9.62469101,-0.02982740,0.04048005,0.01171791
1691757111619360,-0.09576806,0.17238252,9.70130539,-0.01917476,0.03941479,0.02024002
1691757111621376,-0.08619126,0.13407530,9.76834297,-0.00852212,0.05432849,0.00958738
1691757111623476,0.02394202,0.36870706,9.71088219,-0.00532632,0.07776430,0.01597897
1691757111625346,-0.07182605,0.08619126,9.79228497,-0.00319579,0.08841695,-0.00106526
1691757111627368,0.00957681,0.21547815,9.74918938,0.00852212,0.09693906,-0.00745685
1691757111629369,-0.13407530,0.21068975,9.78270817,0.00639159,0.12357067,-0.01065264
1691757111631377,-0.22026655,0.18674773,9.82580376,0.01384844,0.13102752,-0.02130529
1691757111633356,-0.02873042,0.27293900,9.75876617,0.01384844,0.12570120,0.00000000
1691757111635388,-0.07661445,0.21547815,9.77791977,0.02237055,0.11824435,-0.01597897
1691757111637384,-0.12928689,0.12449849,9.82101536,0.02130529,0.11717909,-0.00213053
1691757111639351,-0.04788403,0.21547815,9.81143856,0.01065264,0.09480853,-0.00852212
1691757111641336,-0.16759412,0.21068975,9.81622696,0.00532632,0.08309063,-0.00213053
1691757111643394,0.04788403,0.32082301,9.76834297,0.00319579,0.07776430,-0.00639159
1691757111645386,-0.02394202,0.28730419,9.84495735,0.00745685,0.06711166,-0.00532632
1691757111647384,-0.05746084,0.05746084,9.91199493,0.00319579,0.05432849,-0.00213053
1691757111649333,0.07661445,0.33997664,9.84495735,-0.00639159,0.04580637,0.00852212
1691757111651346,-0.07661445,0.15322891,9.94551373,-0.00426106,0.05539375,-0.00745685
1691757111653389,0.04788403,0.15322891,9.91678333,-0.00639159,0.06072007,-0.01171791
1691757111655390,-0.02394202,0.29688102,9.96466732,-0.01491370,0.06711166,0.00000000
1691757111657361,-0.12449849,0.05267244,9.98382092,-0.03728426,0.06285060,-0.00532632
1691757111659397,0.06703765,0.31124622,9.91678333,-0.03195793,0.06178534,-0.01491370
1691757111661417,-0.09097967,0.20111294,10.07480049,-0.02556635,0.05113269,-0.01597897
1691757111663430,0.06224924,0.16280572,10.01733971,-0.00745685,0.03728426,-0.01171791
1691757111665397,0.06703765,0.33039984,10.06043530,-0.00745685,0.02450108,-0.02024002
1691757111667338,-0.10055647,0.11013328,10.06522369,-0.00106526,0.02130529,-0.01065264
1691757111669366,0.05746084,0.27772740,10.07480049,-0.00852212,0.01810949,-0.01597897
1691757111671407,-0.09576806,0.33039984,10.12747288,0.00213053,0.02024002,-0.01704423
1691757111673363,0.04788403,0.17717093,10.04128170,0.00745685,0.03195793,-0.01810949
1691757111675381,0.07661445,0.36391866,10.07480049,0.01810949,0.04474111,-0.00319579
1691757111677379,-0.15322891,0.05746084,10.12747288,0.00213053,0.05113269,-0.01491370
1691757111679354,0.01915361,0.30645782,9.98382092,-0.00319579,0.06924219,-0.00852212
1691757111681375,-0.24899697,0.26336220,10.16099167,-0.00958738,0.08841695,-0.00426106
1691757111683381,-0.10534488,0.12928689,10.04128170,-0.02024002,0.08415589,-0.01171791
1691757111685556,0.06703765,0.32082301,10.05085850,-0.02450108,0.06924219,-0.02130529
1691757111687427,-0.11013328,0.09097967,9.98860931,-0.01810949,0.05858954,-0.00639159
1691757111689329,0.10534488,0.26336220,9.96945572,-0.02556635,0.04793690,-0.01278317
1691757111691349,-0.14844051,0.32561144,10.14183807,-0.04367584,0.02024002,-0.01597897
1691757111693303,-0.09097967,0.13886370,9.96945572,-0.04261058,0.00852212,0.00745685
1691757111695424,-0.08619126,0.31124622,10.10831928,-0.03728426,-0.00319579,0.00106526
1691757111697514,-0.08619126,0.08140286,10.14183807,-0.03834952,-0.00319579,0.00213053
1691757111699345,0.13886370,0.30645782,9.94072533,-0.02982740,-0.01491370,0.00000000
1691757111701378,-0.10534488,0.28730419,10.08916569,-0.02343582,-0.01597897,0.00106526
1691757111703428,-0.13407530,0.16280572,9.97903252,-0.03089267,-0.01384844,-0.01384844
1691757111705281,0.10055647,0.31603462,9.94072533,-0.04367584,-0.01278317,-0.00852212
1691757111707342,-0.14844051,0.19632454,10.00297451,-0.05006743,-0.01384844,-0.01065264
1691757111709337,0.11013328,0.35434186,9.88805294,-0.05113269,-0.01065264,-0.02130529
1691757111711474,-0.04309563,0.25378537,10.03649330,-0.05006743,-0.01065264,-0.01491370
1691757111713396,-0.14844051,0.21547815,9.96945572,-0.04900216,-0.01810949,0.00106526
1691757111715394,0.11013328,0.31124622,9.84974575,-0.04793690,-0.01065264,-0.00319579
1691757111717361,-0.21068975,0.10055647,10.01255131,-0.05432849,-0.01704423,-0.01384844
1691757111719412,0.09097967,0.17238252,9.70130539,-0.05113269,-0.03302320,-0.00639159
1691757111721409,0.01915361,0.22505496,9.87847614,-0.04900216,-0.04154531,0.00000000
1691757111723358,-0.14365210,0.18674773,9.88805294,-0.05219796,-0.04367584,-0.01491370
1691757111725388,0.20111294,0.39743748,9.74918938,-0.05539375,-0.06391586,-0.02663161
1691757111727379,-0.13407530,0.21547815,10.01255131,-0.05965481,-0.08522116,-0.02130529
1691757111729341,0.01915361,0.20590134,9.76834297,-0.06072007,-0.09480853,-0.01171791
1691757111731382,-0.00957681,0.21547815,9.89284134,-0.06072007,-0.09800433,-0.00426106
1691757111733374,-0.18674773,0.20111294,9.92636013,-0.06178534,-0.10333065,-0.00426106
1691757111735367,0.17238252,0.28730419,9.72524738,-0.06178534,-0.09693906,-0.00106526
1691757111737430,-0.05746084,0.18195933,10.01733971,-0.06178534,-0.08628642,-0.00319579
1691757111739348,0.07182605,0.22984336,9.71567059,-0.05645901,-0.07030746,-0.00319579
1691757111741346,0.00478840,0.25378537,9.87847614,-0.05432849,-0.05752428,-0.00532632
1691757111743369,-0.32561144,0.14365210,10.00776291,-0.05326322,-0.04900216,-0.01384844
1691757111745453,-0.01915361,0.22984336,9.74440098,-0.05432849,-0.02450108,-0.01278317
1691757111747349,-0.20111294,0.21547815,10.03170490,-0.05006743,0.00639159,-0.00639159
1691757111749324,-0.13407530,0.19153613,9.92157173,-0.04154531,0.00852212,-0.00319579
1691757111751361,0.02394202,0.32082301,9.88805294,-0.03195793,0.00639159,0.00319579
1691757111753418,-0.29209262,0.23463176,10.12747288,-0.03302320,0.00532632,0.00745685
1691757111755373,-0.03830723,0.20590134,9.81143856,-0.04154531,0.00319579,0.01597897
1691757111757366,-0.10534488,0.21547815,10.00776291,-0.05006743,-0.01278317,0.00639159
1691757111759321,-0.12928689,0.17238252,9.94551373,-0.03728426,-0.02343582,0.01491370
1691757111761393,0.15322891,0.31124622,9.82580376,-0.03728426,-0.05219796,0.01597897
1691757111763374,-0.13886370,0.28251579,10.09874249,-0.04580637,-0.05432849,0.00958738
1691757111765351,0.06703765,0.29688102,9.84974575,-0.03941479,-0.05752428,-0.00319579
1691757111767346,0.01915361,0.33518824,9.92636013,-0.01491370,-0.08735169,-0.01384844
1691757111769388,-0.13886370,0.26815060,9.98860931,0.00319579,-0.07456851,-0.01278317
1691757111771507,0.17238252,0.26815060,9.85453415,-0.00319579,-0.05858954,-0.01278317
1691757111773409,-0.08140286,0.23942018,10.08916569,-0.01278317,-0.06285060,-0.00745685
1691757111775360,0.05746084,0.26336220,9.85453415,-0.02343582,-0.05858954,-0.00319579
1691757111777348,0.01436521,0.35434186,9.93114853,-0.01384844,-0.03941479,0.00319579
1691757111779428,0.02873042,0.23942018,9.89284134,-0.00532632,-0.05539375,0.00852212
1691757111781420,0.05267244,0.37349546,9.92636013,-0.00639159,-0.05965481,0.01065264
1691757111783344,-0.25378537,0.32561144,10.06522369,-0.01278317,-0.06391586,0.01278317
1691757111785387,0.10534488,0.29688102,9.83059216,-0.02343582,-0.07989483,0.01597897
1691757111787378,-0.09576806,0.16280572,10.10353088,-0.02556635,-0.07776430,0.02237055
1691757111789349,-0.00478840,0.11492168,9.96945572,-0.03941479,-0.08309063,0.01597897
1691757111791358,0.08619126,0.20590134,9.98382092,-0.04474111,-0.09374327,0.00852212
1691757111793374,-0.20111294,0.28730419,10.16578007,-0.03302320,-0.08628642,0.01491370
1691757111795404,0.07661445,0.39743748,9.88326454,-0.00958738,-0.07989483,0.02450108
1691757111797487,-0.08140286,0.34476504,10.07001209,-0.01810949,-0.07243798,0.02663161
1691757111799328,-0.09097967,0.22026655,9.99339771,-0.02556635,-0.05432849,0.02343582
1691757111801375,0.03351882,0.34955344,9.87368774,-0.01704423,-0.05006743,0.02237055
1691757111803429,-0.23463176,0.22026655,10.14662647,-0.01704423,-0.04474111,0.01171791
1691757111805398,0.01436521,0.33518824,9.92636013,-0.01597897,-0.04474111,0.02237055
1691757111807361,-0.11492168,0.36391866,10.00776291,-0.00852212,-0.05113269,0.01917476
1691757111809349,-0.20590134,0.11971009,10.11789608,0.00000000,-0.05858954,0.01384844
1691757111811484,0.08619126,0.17238252,9.93593693,-0.00852212,-0.06817693,0.00852212
1691757111813391,-0.15801731,0.11492168,10.16578007,-0.01384844,-0.08096009,0.01917476
1691757111815405,-0.16280572,0.34476504,10.06522369,-0.00958738,-0.07563377,0.01384844
1691757111817351,-0.02873042,0.29688102,10.01733971,0.00000000,-0.06924219,0.01171791
1691757111819411,-0.13886370,0.14844051,10.14662647,0.00000000,-0.06924219,0.01704423
1691757111821382,0.09576806,0.24899697,9.89284134,-0.01384844,-0.06711166,0.02024002
1691757111823430,-0.07182605,0.20590134,10.01255131,-0.01491370,-0.07137272,0.00958738
1691757111825373,-0.03830723,0.20111294,10.00776291,-0.00639159,-0.08096009,0.01065264
1691757111827373,-0.05267244,0.25378537,10.03649330,-0.00106526,-0.08522116,0.01597897
1691757111829357,-0.17717093,0.36391866,10.14662647,0.00745685,-0.08202536,0.01278317
1691757111831407,-0.01436521,0.18195933,10.03170490,0.01491370,-0.08415589,0.00532632
1691757111833358,-0.01436521,0.21068975,10.01733971,0.01704423,-0.09161274,0.01065264
1691757111835387,-0.19632454,0.33039984,10.18493366,0.01065264,-0.09693906,0.00639159
1691757111837451,0.04309563,0.29209262,9.97903252,0.00532632,-0.09480853,0.01491370
1691757111839329,-0.18674773,0.24899697,10.20408726,0.00426106,-0.08415589,0.01384844
