timestamp,accel_x,accel_y,accel_z,gyro_x,gyro_y,gyro_z
1691752810266297,0.00957681,-0.02873042,9.77791977,-0.00319579,-0.00106526,0.01597897
1691752810268272,0.00957681,-0.04788403,9.84495735,0.00106526,-0.00319579,0.01171791
1691752810270218,0.00478840,-0.03351882,9.85453415,0.00319579,-0.00532632,-0.00106526
1691752810272189,0.00957681,0.01436521,9.81622696,0.01065264,-0.00106526,-0.01491370
1691752810274201,0.01436521,0.00478840,9.79707336,0.01065264,0.00106526,-0.02024002
1691752810276288,0.03830723,0.00478840,9.77313137,0.00745685,0.00426106,-0.01384844
1691752810278238,0.05746084,0.00957681,9.79707336,-0.00106526,0.00213053,0.00106526
1691752810280266,0.02394202,0.05267244,9.82580376,0.00639159,-0.00426106,0.01810949
1691752810282176,-0.00478840,0.07661445,9.86889935,0.03621899,-0.00639159,0.01917476
1691752810284369,0.03351882,-0.01436521,9.96466732,0.09374327,-0.00639159,-0.03302320
1691752810286289,-0.02873042,-0.05746084,9.99339771,0.12250541,-0.00106526,-0.09374327
1691752810288306,0.04788403,0.05746084,10.08437729,0.06711166,0.00213053,-0.08628642
1691752810290197,0.10534488,0.16759412,10.08437729,-0.01065264,0.01278317,-0.04474111
1691752810292185,0.04788403,0.09097967,10.01733971,-0.03302320,0.02450108,-0.06072007
1691752810294226,0.01436521,0.08619126,10.00776291,-0.04474111,0.01810949,-0.13422331
1691752810296298,0.20590134,0.11013328,10.08437729,-0.09800433,0.01810949,-0.17044231
1691752810298232,0.22505496,0.19153613,10.05085850,-0.03941479,0.03834952,-0.23648870
1691752810300240,0.21068975,0.18195933,9.88326454,-0.05432849,0.05006743,-0.27270770
1691752810302336,0.28251579,0.09576806,9.98860931,-0.04367584,0.07882957,-0.26525083
1691752810304231,0.45968673,0.07661445,10.06043530,0.05645901,0.12250541,-0.31425300
1691752810306329,0.51714754,0.25378537,9.88326454,0.01597897,0.15339808,-0.31318775
1691752810308238,0.58418524,0.27293900,9.84974575,-0.01384844,0.21837921,-0.28336033
1691752810310264,0.60812724,0.01915361,9.91678333,0.01491370,0.31105721,-0.30146983
1691752810312217,0.67995328,0.02873042,10.03649330,0.02130529,0.39840889,-0.37284255
1691752810314249,0.85233581,0.33039984,10.24239445,0.11078750,0.48149952,-0.43782368
1691752810316220,0.66558808,0.07182605,10.57758331,0.22583605,0.60613549,-0.49747849
1691752810318261,0.68474168,0.12928689,10.58237171,0.24501082,0.64874601,-0.55180699
1691752810320311,0.73262572,-0.00957681,10.77390766,0.30040458,0.70520508,-0.52837116
1691752810322225,0.81402856,0.15322891,11.08515358,0.32916671,0.75207669,-0.51558799
1691752810324220,0.60333884,0.06224924,10.99896240,0.31851408,0.80747044,-0.50706589
1691752810326296,0.52193600,-0.05267244,10.78348446,0.36218992,0.84049362,-0.50173956
1691752810328242,0.64643449,0.17238252,10.74517727,0.37603834,0.85860312,-0.49108690
1691752810330231,0.51235914,0.11492168,10.88882923,0.42823631,0.83516729,-0.51665324
1691752810332190,0.54108959,0.01436521,10.71165848,0.44315001,0.84901577,-0.46339002
1691752810334285,0.51714754,0.03830723,10.69729328,0.50280482,0.83942837,-0.52517539
1691752810336234,0.51235914,0.09097967,10.75475407,0.46445531,0.78509986,-0.47830373
1691752810338341,0.58897364,-0.09097967,10.88404083,0.40373522,0.74888092,-0.51345748
1691752810340202,0.36870706,-0.51235914,11.15219116,0.31212249,0.72970617,-0.49960902
1691752810342190,0.52672440,-0.37828386,10.99896240,0.29188246,0.67857343,-0.51345748
1691752810344272,0.47884035,-0.48841715,11.26232433,0.17896442,0.61891866,-0.55180699
1691752810346279,0.33039984,-0.76135612,11.55920601,0.11824435,0.57843858,-0.53689325
1691752810348234,0.46447513,-0.44532153,11.43949604,0.09161274,0.58163440,-0.60507017
1691752810350263,0.26815060,-0.66558808,11.66455078,0.07030746,0.55819857,-0.57950383
1691752810352240,0.29688102,-0.24420857,11.84650993,-0.02024002,0.52837116,-0.60080916
1691752810354235,0.25378537,-0.43574470,11.87045193,-0.05219796,0.49747849,-0.55500275
1691752810356243,0.25857377,-0.42616791,12.01889229,-0.05006743,0.51452273,-0.57204700
1691752810358191,0.22026655,-0.05267244,12.11944866,-0.03728426,0.45593318,-0.52197957
1691752810360267,0.35913026,-0.20590134,12.15296745,-0.05858954,0.43143210,-0.50919640
1691752810362190,0.08619126,-0.02394202,12.45942593,-0.07669904,0.41119206,-0.49321744
1691752810364234,0.34955344,-0.09097967,12.39238834,-0.07030746,0.35047200,-0.50813115
1691752810366206,0.36391866,-0.14365210,12.48336792,-0.10013486,0.31957933,-0.47191215
1691752810368286,0.22505496,-0.11971009,12.75630665,-0.13741912,0.29933929,-0.46978161
1691752810370319,0.47884035,-0.28251579,12.81855583,-0.16831177,0.22796659,-0.44954160
1691752810373204,0.36870706,-0.24420857,13.32133865,-0.26525083,0.15446334,-0.41332260
1691752810374993,0.30645782,-0.35913026,13.45541382,-0.29933929,0.07456851,-0.42397526
1691752810377074,0.53630120,-0.04309563,13.64694977,-0.35579833,0.02982740,-0.41119206
1691752810379056,0.24420857,-0.36870706,13.83369732,-0.39201730,-0.02982740,-0.41332260
1691752810381056,0.44053310,0.01436521,13.91031170,-0.43356264,-0.05432849,-0.40160468
1691752810383014,0.35434186,-0.15322891,13.86242771,-0.45699844,-0.06178534,-0.37603834
1691752810385034,0.34955344,-0.00478840,13.84806252,-0.43462789,-0.10546118,-0.36964676
1691752810387012,0.39743748,0.27772740,13.77623653,-0.39840889,-0.09054748,-0.35686359
1691752810389006,0.32561144,0.00957681,13.83369732,-0.34194988,-0.05645901,-0.33875409
1691752810391221,0.33518824,0.43574470,13.62300777,-0.31744879,-0.09161274,-0.31957933
1691752810393324,0.17717093,0.13407530,13.44104862,-0.27377295,-0.09054748,-0.30253509
1691752810395256,0.25857377,0.38307226,13.33570385,-0.22903186,-0.09267800,-0.28229508
1691752810397200,0.32082301,0.24420857,13.27824306,-0.19174761,-0.13528858,-0.29401299
1691752810399026,0.23463176,0.26815060,13.12980175,-0.19387813,-0.16724652,-0.26844662
1691752810401000,0.38786069,0.11971009,12.96220779,-0.17150757,-0.21944447,-0.25459820
1691752810403336,0.30645782,0.17717093,12.90474701,-0.15872440,-0.26951191,-0.27057716
1691752810405079,0.58418524,0.33039984,12.56477070,-0.13102752,-0.28762141,-0.23435818
1691752810407008,0.28251579,0.33997664,12.50252151,-0.11291803,-0.30679616,-0.27057716
1691752810408984,0.30645782,0.52193600,12.04283428,-0.08415589,-0.29081720,-0.25140241
1691752810411161,0.32082301,0.50278234,11.92312431,-0.05752428,-0.29933929,-0.24714135
1691752810413122,0.06703765,0.32561144,11.92791271,-0.03089267,-0.29614350,-0.23009712
1691752810415367,0.30645782,0.16280572,11.55920601,-0.01065264,-0.30573088,-0.23755397
1691752810417102,0.00957681,0.09097967,11.70285797,-0.00213053,-0.29401299,-0.20346551
1691752810419144,0.18195933,0.19153613,11.34372807,0.00532632,-0.31851408,-0.21092236
1691752810421111,0.23942018,0.20111294,11.36288166,0.00745685,-0.35473305,-0.19174761
1691752810423111,0.08140286,0.16759412,11.38203526,0.01278317,-0.36432043,-0.20559603
1691752810425101,0.41180268,0.06224924,10.97023201,0.02130529,-0.36112463,-0.20772657
1691752810428485,0.12449849,0.26815060,11.08994198,0.05539375,-0.35899413,-0.16511598
1691752810430294,0.26815060,-0.09097967,10.83615685,0.04900216,-0.35792884,-0.17044231
1691752810432228,0.18674773,-0.02394202,10.75954247,0.04793690,-0.35047200,-0.17470337
1691752810434476,0.07182605,0.01436521,10.85531044,0.05006743,-0.34408042,-0.14700650
1691752810436314,0.41180268,0.03830723,10.40520096,0.04367584,-0.36432043,-0.12889700
1691752810438215,-0.00478840,0.16759412,10.66377449,0.02663161,-0.36005938,-0.13315806
1691752810440277,0.22026655,0.05267244,10.37168217,0.03089267,-0.38456047,-0.12889700
1691752810442194,0.24420857,0.03830723,10.19929886,0.05113269,-0.39627838,-0.11717909
1691752810444512,0.05746084,0.08619126,10.37647057,0.06711166,-0.40693101,-0.11078750
1691752810446281,0.52672440,0.11013328,9.95030212,0.10759171,-0.42397526,-0.11078750
1691752810448207,0.23463176,0.11971009,10.17056847,0.12463594,-0.43356264,-0.10546118
1691752810450264,0.25857377,0.11492168,10.10353088,0.14594123,-0.43782368,-0.10652644
1691752810452202,0.33518824,0.22984336,9.87847614,0.14594123,-0.46339002,-0.09267800
1691752810454272,0.10534488,0.28730419,10.06522369,0.14700650,-0.46765110,-0.07882957
1691752810456284,0.41659111,0.28251579,9.86411095,0.14168017,-0.49960902,-0.07989483
1691752810458242,0.29688102,0.36391866,9.98860931,0.13209279,-0.50067431,-0.08841695
1691752810460255,0.26815060,0.12449849,9.99339771,0.11824435,-0.53582799,-0.08415589
1691752810462236,0.41659111,0.09576806,9.89762974,0.10013486,-0.54115433,-0.08841695
1691752810464237,0.17717093,-0.08619126,10.05564690,0.08841695,-0.53263223,-0.07243798
1691752810466219,0.34955344,-0.08619126,9.90241814,0.08096009,-0.54115433,-0.06817693
1691752810468230,0.34955344,0.15322891,10.00297451,0.06285060,-0.51132691,-0.05006743
1691752810470210,0.20111294,-0.04788403,10.00776291,0.05113269,-0.51558799,-0.04261058
1691752810472228,0.21547815,0.05746084,9.80665016,0.02343582,-0.48895636,-0.03195793
1691752810474196,0.22505496,0.01915361,9.91678333,0.01171791,-0.50280482,-0.01917476
1691752810476260,0.04309563,-0.32082301,9.93114853,-0.04367584,-0.54115433,-0.02343582
1691752810478259,0.25857377,-0.02394202,9.88326454,-0.06924219,-0.55606806,-0.00745685
1691752810480239,0.24420857,-0.16759412,10.08437729,-0.10546118,-0.64128917,-0.02024002
1691752810482186,0.15322891,-0.23942018,10.02212811,-0.13315806,-0.65513760,-0.00958738
1691752810484195,0.21068975,-0.07661445,9.91199493,-0.13848437,-0.69135660,-0.01278317
1691752810486271,0.29688102,-0.05746084,10.11310768,-0.14381070,-0.70413977,0.00745685
1691752810488247,0.19153613,0.06703765,9.96466732,-0.12250541,-0.68070400,0.01384844
1691752810490307,0.29688102,0.13407530,9.91199493,-0.10972223,-0.64874601,0.05858954
1691752810492195,0.02394202,-0.02873042,10.08916569,-0.01917476,-0.57311225,0.13422331
1691752810494290,0.19153613,0.28251579,10.10353088,0.00958738,-0.53689325,0.12676647
1691752810496204,-0.06703765,0.51235914,10.30464458,0.11185277,-0.38669100,0.12463594
1691752810498222,-0.10534488,0.69431847,10.44350815,0.19813919,-0.26951191,0.12783173
1691752810500208,-0.07182605,0.67516488,10.47702694,0.27483824,-0.20240024,0.10759171
1691752810502200,-0.30645782,0.47405192,10.42914295,0.34301513,-0.11717909,0.05539375
1691752810504250,-0.29688102,0.56024319,10.30464458,0.37497309,-0.06391586,0.09161274
1691752810506324,-0.20590134,0.69431847,10.38125896,0.40053943,-0.04687164,0.17789917
1691752810508209,-0.22984336,0.22984336,10.20887566,0.41758364,-0.01384844,0.25885925
1691752810510358,-0.09576806,0.22984336,10.18014526,0.41438785,-0.01917476,0.26205504
1691752810512223,-0.06703765,0.11013328,10.40998936,0.26525083,-0.06498113,0.28336033
1691752810514227,0.02394202,-0.01915361,10.31422138,0.23329291,-0.07137272,0.28336033
1691752810516208,-0.00957681,-0.28730419,10.32379818,0.17789917,-0.09800433,0.14274544
1691752810518236,0.07182605,-0.53151280,10.34295177,0.08735169,-0.14487596,0.07882957
1691752810520267,0.43095630,-0.20111294,10.21366405,0.01491370,-0.19813919,0.00532632
1691752810522251,0.21547815,-0.23942018,10.31900978,-0.02130529,-0.23116238,0.05752428
1691752810524236,0.25857377,-0.16280572,9.97903252,0.01065264,-0.21305288,0.11398330
1691752810526209,0.15322891,0.20111294,10.09395409,0.15978967,-0.23222765,0.20879182
1691752810528149,0.27293900,0.34955344,10.48660374,0.27377295,-0.22796659,0.24927188
1691752810530253,0.14365210,0.44532153,10.64462090,0.48576057,-0.17789917,0.21518342
1691752810532199,0.11971009,0.80924016,10.86009884,0.65087658,-0.13209279,0.18002969
1691752810534245,0.14365210,1.13963997,11.22401714,0.90334421,-0.07030746,0.21518342
1691752810536384,0.08140286,1.57059634,11.59751320,1.18776989,-0.04048005,0.09800433
1691752810538237,-0.17238252,0.93373865,11.57357121,1.51054502,0.09587380,0.14487596
1691752810540202,-0.16280572,1.43652105,11.57357121,1.51374078,0.14487596,0.22903186
1691752810542186,-0.05267244,1.04387200,11.55441761,1.34969008,0.20133498,0.25459820
1691752810544272,-0.23463176,0.73741412,11.69806957,1.27831733,0.25033715,0.30466563
1691752810546369,-0.09576806,0.80445176,11.75074196,1.29429626,0.31638354,0.42077947
1691752810548232,-0.11971009,0.12928689,12.57434750,1.15581191,0.27377295,0.38456047
1691752810550231,-0.12928689,-0.10055647,12.82334423,1.06632972,0.25459820,0.39947417
1691752810552220,0.05267244,-0.94331545,13.18726254,0.75420719,0.19707392,0.23116238
1691752810554231,0.13886370,-0.95768070,13.34528065,0.52197957,0.12250541,0.09906960
1691752810556232,0.26815060,-0.97204590,13.18247414,0.23755397,0.15339808,-0.08415589
1691752810558207,0.38307226,-1.26413846,13.21120453,0.15446334,0.10013486,-0.08735169
1691752810560243,0.36391866,-1.00556469,13.02924538,0.02769688,0.05219796,-0.13528858
1691752810562338,0.32082301,-1.11090958,12.45463753,-0.12357067,0.04261058,-0.16298546
1691752810564142,0.41659111,-0.85233581,12.25831223,-0.13848437,-0.00319579,-0.18429075
1691752810566214,0.37349546,-0.74699092,11.71243477,-0.15126754,0.00106526,-0.18748654
1691752810568208,0.27772740,-0.43574470,11.47301483,-0.16724652,-0.02876214,-0.14594123
1691752810570341,0.26336220,-0.52193600,11.29584408,-0.15872440,-0.00852212,-0.18322548
1691752810572252,0.22505496,-0.41180268,11.12824917,-0.09374327,-0.02769688,-0.14381070
1691752810574214,0.25857377,-0.18674773,10.72123528,-0.09374327,-0.04367584,-0.05965481
1691752810576219,0.19153613,-0.02394202,10.65419769,-0.14381070,-0.05965481,-0.13635385
1691752810578360,0.34476504,-0.18674773,10.35252857,-0.14487596,-0.09587380,-0.05539375
1691752810580223,0.25378537,-0.28730419,10.23281765,-0.16192019,-0.06817693,-0.14700650
1691752810582196,0.29688102,-0.12449849,10.11789608,-0.23755397,-0.09800433,-0.03728426
1691752810584207,0.29209262,0.00000000,9.82101536,-0.31212249,-0.10120012,-0.12037488
1691752810586206,0.09576806,-0.27772740,9.78749657,-0.35686359,-0.07137272,-0.09374327
1691752810588261,0.18674773,-0.08140286,9.53849983,-0.41438785,-0.10972223,-0.13848437
1691752810590280,0.16759412,-0.25857377,9.53371143,-0.46658581,-0.12144014,-0.11717909
1691752810592189,0.17238252,-0.32082301,9.51934624,-0.51345748,-0.13315806,-0.10120012
1691752810594241,0.08140286,-0.28251579,9.34217548,-0.53795856,-0.11717909,-0.12144014
1691752810596324,0.11971009,-0.16280572,9.08838940,-0.55074173,-0.12250541,-0.12037488
1691752810598214,0.22026655,0.02394202,9.15542698,-0.57098174,-0.15978967,-0.07456851
1691752810600206,-0.08619126,-0.03830723,9.21288776,-0.59441757,-0.12996227,-0.09054748
1691752810602231,0.09576806,-0.00478840,8.78193188,-0.59228700,-0.09374327,-0.08841695
1691752810604263,0.00957681,-0.00957681,8.97346783,-0.55393749,-0.08309063,-0.09161274
1691752810606214,0.11013328,0.07182605,8.69574070,-0.52730590,-0.09693906,-0.07563377
1691752810608213,0.06703765,0.26336220,8.69095230,-0.51558799,-0.09054748,-0.10013486
1691752810610235,-0.16280572,0.11971009,8.75320148,-0.53050166,-0.05858954,-0.09267800
1691752810612240,0.14844051,0.20111294,8.33661079,-0.51132691,-0.08309063,-0.05752428
1691752810614236,-0.04309563,0.33518824,8.57124233,-0.51239222,-0.11185277,-0.06924219
1691752810616146,-0.12928689,0.13407530,8.60954952,-0.52517539,-0.11185277,-0.09267800
1691752810618212,0.10534488,0.24420857,8.32224464,-0.53582799,-0.11398330,-0.07456851
1691752810620277,-0.05746084,0.22505496,8.56645393,-0.53902382,-0.10759171,-0.07563377
1691752810622230,0.02394202,0.03351882,8.49941635,-0.51984906,-0.17044231,-0.09374327
1691752810624230,0.11971009,0.21068975,8.49462795,-0.55606806,-0.15020229,-0.09693906
1691752810626161,0.01915361,0.06224924,8.78193188,-0.56672066,-0.11611383,-0.08415589
1691752810628253,0.17238252,-0.05267244,8.53772354,-0.55393749,-0.16192019,-0.07776430
1691752810630272,0.18195933,0.25857377,8.52814674,-0.53795856,-0.13741912,-0.07456851
1691752810632192,0.08140286,0.00957681,8.87769985,-0.51665324,-0.15126754,-0.07563377
1691752810634208,0.26815060,-0.04309563,8.72447109,-0.51878381,-0.13102752,-0.07243798
1691752810636240,0.27293900,0.14844051,8.68616390,-0.49960902,-0.12144014,-0.06391586
1691752810638276,0.10055647,-0.01915361,8.89685345,-0.49960902,-0.15659387,-0.06604639
1691752810640233,0.18195933,0.08619126,8.80108547,-0.54648066,-0.10120012,-0.07669904
1691752810642192,0.16280572,0.17238252,8.92558384,-0.55819857,-0.08628642,-0.07243798
1691752810644298,-0.05746084,0.05267244,9.12190819,-0.58163440,-0.06817693,-0.06817693
1691752810646301,0.06703765,0.21068975,8.98304462,-0.60293967,-0.04900216,-0.04793690
1691752810648247,-0.13886370,0.23942018,9.24161816,-0.59335232,-0.02024002,-0.04793690
1691752810650212,-0.26336220,-0.00957681,9.34696388,-0.60933125,0.03621899,-0.04367584
1691752810652133,0.02394202,0.24899697,9.08360100,-0.60507017,0.01491370,-0.05539375
1691752810654313,-0.17238252,0.18674773,9.32781029,-0.59548283,-0.00639159,-0.04261058
1691752810656215,-0.02394202,-0.00478840,9.22246456,-0.55180699,-0.02237055,-0.04580637
1691752810658287,0.34476504,0.37349546,9.02135181,-0.51132691,-0.07989483,-0.03195793
1691752810660218,0.13407530,0.32561144,9.20809937,-0.49428269,-0.11930962,-0.03089267
1691752810662254,0.32561144,0.19632454,8.92558384,-0.43249735,-0.13315806,-0.01278317
1691752810664236,0.33997664,0.53151280,8.93516064,-0.38136467,-0.15552860,-0.02450108
1691752810666342,0.16280572,0.30645782,9.04050541,-0.38029939,-0.17576863,-0.01704423
1691752810668214,0.27772740,0.42137951,8.74362469,-0.34727621,-0.15233281,-0.00532632
1691752810670254,0.16280572,0.67995328,8.88248825,-0.34514567,-0.14807175,-0.02024002
1691752810672234,0.04788403,0.40222588,8.95431423,-0.36538571,-0.17576863,-0.00958738
1691752810674244,0.10055647,0.53630120,8.84418106,-0.38349521,-0.15446334,-0.00426106
1691752810676220,0.01915361,0.38307226,9.11233139,-0.38988680,-0.15552860,0.03089267
1691752810678226,0.00957681,0.16759412,9.10275459,-0.44634581,-0.20666130,0.03408846
1691752810680286,0.15801731,0.15322891,9.09317780,-0.54328483,-0.19920444,0.03834952
1691752810682191,-0.00957681,-0.19153613,9.49061584,-0.57524282,-0.23648870,0.02450108
1691752810684273,0.17238252,-0.18195933,9.42836666,-0.65833342,-0.23009712,0.03408846
1691752810686254,0.18195933,0.11971009,9.50019264,-0.68070400,-0.26738137,0.03408846
1691752810688374,0.03830723,-0.06703765,9.78270817,-0.68603027,-0.25885925,0.05326322
1691752810690243,0.28251579,0.05746084,9.62469101,-0.57843858,-0.27164242,0.04048005
1691752810692253,0.20590134,0.21068975,9.66299820,-0.55074173,-0.26738137,0.04367584
1691752810694276,0.18195933,0.18195933,9.84974575,-0.43888894,-0.28016454,0.07669904
1691752810696240,0.20590134,0.22505496,9.73003578,-0.37177730,-0.28762141,0.06498113
1691752810698264,-0.00478840,0.50278234,9.82580376,-0.28229508,-0.26525083,0.03408846
1691752810700211,0.14844051,0.73741412,9.69651699,-0.20453078,-0.27164242,0.05965481
1691752810702214,0.17717093,0.73741412,9.66778660,-0.10972223,-0.29720879,0.06285060
1691752810704271,0.03830723,0.91458505,9.67736340,-0.01491370,-0.29720879,0.07137272
1691752810706291,0.02394202,0.77572137,9.52413464,0.10439591,-0.26844662,0.06178534
1691752810708215,0.15322891,0.85233581,9.63905621,0.20772657,-0.25033715,0.05752428
1691752810710225,0.08619126,0.95289230,9.52892303,0.24181503,-0.24714135,0.07030746
1691752810712239,-0.10055647,0.67037648,9.45230865,0.27590349,-0.20985709,0.09693906
1691752810714254,-0.11492168,0.69431847,9.39484787,0.31425300,-0.18109496,0.10546118
1691752810716229,-0.09576806,0.47884035,9.37569427,0.26418558,-0.15552860,0.08522116
1691752810718212,-0.19632454,0.44053310,9.38048267,0.21518342,-0.12889700,0.12996227
1691752810720265,-0.00957681,0.42137951,9.28950214,0.21305288,-0.10972223,0.07243798
1691752810722302,0.08619126,0.26815060,9.24161816,0.20985709,-0.09054748,0.08415589
1691752810724280,-0.17238252,0.22505496,9.34217548,0.21944447,-0.10013486,0.06391586
1691752810726236,0.16280572,0.35434186,9.22246456,0.22050974,-0.10013486,0.07456851
1691752810728271,0.07661445,0.24420857,9.22725296,0.28655612,-0.09161274,0.06817693
1691752810730277,-0.06224924,0.25378537,9.24161816,0.35686359,-0.10013486,0.05645901
1691752810732227,0.12449849,0.34955344,9.05008221,0.42290998,-0.12250541,0.07563377
1691752810734281,-0.02394202,0.45010993,9.19852257,0.44528052,-0.10972223,0.07776430
1691752810736235,0.00957681,0.22505496,9.17936897,0.47617319,-0.09480853,0.07030746
1691752810738289,-0.02873042,0.36870706,9.09796619,0.51345748,-0.06604639,0.04687164
1691752810740239,0.02394202,0.15801731,9.28950214,0.51345748,-0.06285060,0.07243798
1691752810742216,0.09097967,0.06224924,9.18894577,0.46658581,-0.05006743,0.07563377
1691752810744214,0.01436521,0.01915361,9.17458057,0.41545314,-0.01597897,0.06604639
1691752810746297,-0.15801731,-0.02394202,9.38527107,0.38029939,-0.01278317,0.06817693
1691752810748280,0.11971009,0.00000000,9.16979218,0.33768883,0.02237055,0.06604639
1691752810750281,-0.15322891,0.08619126,9.28471375,0.37603834,0.00000000,0.06072007
1691752810752288,-0.29209262,0.03351882,9.36611748,0.42717105,0.01384844,0.06072007
1691752810754316,0.09576806,0.40701428,9.06444740,0.48576057,0.05326322,0.05539375
1691752810756272,-0.16759412,0.38307226,9.23682976,0.51665324,0.09906960,0.04261058
1691752810758208,-0.09097967,0.28730419,9.10754299,0.58802599,0.11611383,0.05113269
1691752810760222,-0.08140286,0.43574470,9.00698662,0.65300709,0.15872440,0.02556635
1691752810762231,-0.15801731,0.59376204,9.16979218,0.64981133,0.19174761,0.02663161
1691752810764305,-0.14844051,0.44532153,9.08360100,0.69029135,0.23116238,0.01917476
1691752810766237,-0.23942018,0.31124622,9.03092861,0.72864085,0.27377295,0.01597897
1691752810768228,-0.18674773,0.33039984,9.15063858,0.71266192,0.29188246,-0.00639159
1691752810770246,-0.10534488,0.34476504,9.12669659,0.64874601,0.31212249,0.03195793
1691752810772282,0.07661445,0.15801731,9.24640656,0.65300709,0.31957933,0.02343582
1691752810774276,-0.14365210,-0.18674773,9.34217548,0.59228700,0.32597092,0.01171791
1691752810776209,0.02394202,0.05267244,9.10754299,0.49108690,0.32064459,0.00532632
1691752810778217,-0.01915361,-0.35434186,9.66299820,0.41758364,0.29827404,0.00639159
1691752810780291,-0.11971009,-0.36391866,9.64384460,0.36751622,0.27270770,-0.02769688
1691752810782231,0.22026655,-0.09097967,9.20809937,0.30040458,0.26525083,-0.05858954
1691752810784262,0.00478840,-0.33039984,9.52892303,0.25353295,0.23648870,-0.04367584
1691752810786277,0.05746084,-0.44053310,9.55286503,0.23755397,0.22583605,-0.01597897
1691752810788280,0.33997664,-0.14365210,9.28950214,0.22477080,0.20985709,-0.05006743
1691752810790367,0.09576806,-0.28251579,9.62947941,0.21305288,0.21944447,-0.02343582
1691752810792228,0.24899697,-0.11013328,9.33738708,0.22690132,0.21518342,0.00000000
1691752810794274,0.21068975,-0.15801731,9.26556015,0.20026971,0.21305288,-0.02130529
1691752810796281,0.03830723,-0.16759412,9.58159542,0.19494340,0.24927188,-0.04474111
1691752810798251,0.21547815,-0.09576806,9.35654068,0.20666130,0.24927188,-0.03515373
1691752810800234,-0.00478840,-0.04309563,9.69172859,0.17896442,0.25459820,-0.04474111
1691752810802192,0.13886370,-0.01436521,9.64384460,0.17257284,0.25992453,-0.05113269
1691752810804227,0.19632454,0.03830723,9.50019264,0.14700650,0.26631612,-0.04687164
1691752810806324,0.14844051,-0.12449849,9.87368774,0.12144014,0.26631612,-0.02237055
1691752810808325,0.11971009,-0.02873042,9.77791977,0.11717909,0.26312032,-0.04048005
1691752810810252,0.13407530,0.06224924,9.91678333,0.10013486,0.25033715,-0.04793690
1691752810812184,0.17717093,-0.07661445,9.93593693,0.07882957,0.25246766,-0.04261058
1691752810814311,0.20111294,-0.27293900,9.90241814,0.05326322,0.25459820,-0.04048005
1691752810816216,0.12928689,-0.08619126,9.96466732,0.04793690,0.24927188,-0.03834952
1691752810818228,0.22026655,-0.13407530,10.04128170,0.02769688,0.22050974,-0.04261058
1691752810820227,0.06224924,-0.04309563,10.12747288,0.01384844,0.21944447,-0.04154531
1691752810822234,0.25857377,0.13886370,10.14183807,-0.00532632,0.22157501,-0.05006743
1691752810824242,0.22505496,-0.12449849,10.19929886,0.00106526,0.21092236,-0.05219796
1691752810826275,0.13407530,0.03351882,10.21366405,-0.00958738,0.19281286,-0.04793690
1691752810828227,0.15801731,-0.04788403,10.37168217,-0.04474111,0.19387813,-0.04474111
1691752810830280,0.02394202,-0.20590134,10.43393135,-0.04687164,0.19707392,-0.04048005
1691752810832217,0.23942018,0.09576806,10.31900978,-0.02769688,0.18216021,-0.04261058
1691752810834348,0.12928689,-0.01436521,10.45308495,-0.04154531,0.18535601,-0.04367584
1691752810836215,0.19632454,0.13407530,10.41477776,-0.02556635,0.17044231,-0.03728426
1691752810838229,0.31603462,0.29209262,10.32379818,-0.01491370,0.15978967,-0.04154531
1691752810840282,0.03830723,-0.02394202,10.55364132,-0.02130529,0.16298546,-0.03621899
1691752810842211,0.25857377,0.24420857,10.44350815,-0.02237055,0.15233281,-0.02024002
1691752810844222,0.20111294,0.10534488,10.50096893,-0.04687164,0.14381070,-0.01065264
1691752810846238,-0.01915361,0.00478840,10.56321812,-0.06072007,0.12037488,0.00426106
1691752810848332,0.31603462,0.23942018,10.45787334,-0.09374327,0.09480853,0.02237055
1691752810850251,0.09576806,-0.15801731,10.78348446,-0.16831177,0.04687164,0.03195793
1691752810852256,0.34955344,-0.08619126,10.62546730,-0.24074976,0.03834952,0.01278317
1691752810854228,0.27293900,-0.20590134,10.78348446,-0.30892667,-0.00213053,0.00532632
1691752810856195,0.31124622,-0.49320555,10.94150162,-0.39201730,-0.02024002,-0.01278317
1691752810858284,0.23463176,-0.27293900,11.12346077,-0.46232477,-0.03195793,0.00639159
1691752810860230,0.26336220,-0.41180268,11.25753593,-0.47510794,-0.03834952,0.00106526
1691752810862271,0.45489833,-0.08140286,11.09473038,-0.48469532,-0.02982740,0.00106526
1691752810864276,0.23942018,-0.18674773,11.20965195,-0.47936898,-0.02769688,0.01278317
1691752810866303,0.14844051,-0.16280572,11.25274754,-0.46232477,-0.02876214,0.00745685
1691752810868238,0.19632454,-0.01915361,11.15219116,-0.42397526,-0.04793690,0.01491370
1691752810870328,0.08619126,-0.08140286,11.25274754,-0.36432043,-0.02982740,-0.00639159
1691752810872239,0.16759412,0.38786069,10.93192482,-0.23755397,-0.02343582,0.05432849
1691752810874251,0.14365210,0.38786069,10.98459721,-0.13528858,-0.00106526,0.07350325
1691752810876233,0.04309563,0.49799395,10.92234802,0.00319579,0.06285060,0.04580637
1691752810878244,0.12928689,0.87627780,10.69729328,0.17576863,0.08309063,0.08309063
1691752810880262,-0.09576806,0.86670101,10.66856289,0.32916671,0.13954964,0.02343582
1691752810882237,-0.04309563,0.94810385,10.37168217,0.46339002,0.18855180,0.02876214
1691752810884425,-0.21068975,0.90021986,10.18493366,0.57204700,0.17150757,0.06072007
1691752810886254,-0.13886370,0.83797061,9.87847614,0.59335232,0.22264026,0.11930962
1691752810888181,-0.27772740,0.65122288,9.82580376,0.59228700,0.22370553,0.03195793
1691752810890386,-0.33518824,0.75177932,9.56244183,0.52943641,0.21837921,0.14381070
1691752810892233,-0.50757074,0.60812724,9.63426781,0.44634581,0.19174761,0.15446334
1691752810894222,-0.48362875,0.19632454,9.68215179,0.32384038,0.22903186,0.14274544
1691752810896214,-0.26815060,-0.05746084,9.57201862,0.26951191,0.13315806,0.11611383
1691752810898285,-0.25857377,-0.19153613,10.04607010,0.05326322,0.12783173,0.10439591
1691752810900251,-0.08140286,-0.57460839,9.96466732,-0.05645901,0.02556635,0.00106526
1691752810902219,0.20590134,-0.34955344,9.94551373,-0.18002969,0.02982740,0.01491370
1691752810904235,0.11492168,-0.27293900,10.13226128,-0.20133498,-0.02982740,0.01917476
1691752810906349,0.29209262,-0.50757074,10.12268448,-0.25033715,-0.08096009,-0.00852212
1691752810908264,0.24420857,-0.18674773,10.13226128,-0.24181503,-0.15446334,0.01597897
1691752810910240,0.16280572,-0.31603462,10.16578007,-0.23329291,-0.15446334,0.06924219
1691752810912211,0.37349546,0.12449849,10.07958889,-0.19813919,-0.15765914,0.07882957
1691752810914334,0.32561144,0.53630120,10.40041256,-0.07989483,-0.20240024,0.17789917
1691752810916313,0.15801731,0.80445176,10.87446404,0.27590349,-0.10759171,0.10759171
1691752810918275,0.16759412,1.13963997,11.10430717,0.46339002,-0.05006743,0.11291803
1691752810920255,-0.05267244,1.13485157,11.27668953,0.61998391,0.02237055,0.12783173
1691752810922213,-0.05267244,0.94331545,11.15697956,0.71159667,0.06924219,0.06391586
1691752810924312,-0.28251579,0.91458505,10.91755962,0.84581995,0.12144014,0.01917476
1691752810926268,-0.17238252,0.72783732,10.85531044,0.92038846,0.24820662,-0.00745685
1691752810928258,-0.21068975,0.75177932,10.66856289,0.91080111,0.29294771,0.05219796
1691752810930271,-0.44053310,0.67037648,10.43393135,0.87564737,0.32490566,0.04048005
1691752810932300,-0.22505496,0.38307226,10.24239445,0.84475470,0.34194988,0.10333065
1691752810934286,-0.29209262,0.07661445,10.40998936,0.67857343,0.36645097,0.14487596
1691752810936219,-0.19153613,-0.42616791,10.18493366,0.47084689,0.33342776,0.15872440
1691752810938242,0.00000000,-0.43095630,10.03170490,0.32703617,0.32597092,0.02556635
1691752810940254,0.06703765,-0.49320555,10.10831928,0.22690132,0.26738137,0.04048005
1691752810942251,0.07661445,-0.63206923,10.20408726,0.12676647,0.18748654,-0.05645901
1691752810944257,0.40222588,-0.55545479,10.09395409,-0.06178534,0.14594123,-0.05965481
1691752810946363,0.20111294,-0.77572137,10.02212811,-0.10120012,0.07776430,-0.11078750
1691752810948283,0.51714754,-0.33997664,9.81622696,-0.14061491,0.00532632,-0.14700650
1691752810950345,0.30645782,-0.45489833,9.89762974,-0.14168017,-0.04474111,-0.12676647
1691752810952205,0.48362875,-0.25378537,9.84974575,-0.17576863,-0.05645901,-0.12996227
1691752810954228,0.30645782,-0.29209262,9.73482418,-0.17257284,-0.07563377,-0.10013486
1691752810956347,0.48841715,-0.18674773,9.64863300,-0.15765914,-0.10972223,-0.05645901
1691752810958244,0.42137951,-0.06224924,9.67257500,-0.14168017,-0.08522116,-0.08948221
1691752810960245,0.37828386,-0.01915361,9.58638382,-0.12783173,-0.09800433,-0.01597897
1691752810962195,0.40701428,0.08140286,9.56244183,-0.13422331,-0.10226539,-0.09161274
1691752810964319,0.11492168,0.01915361,9.61990261,-0.08415589,-0.05965481,-0.05432849
1691752810966299,0.32561144,0.15801731,9.40442467,-0.07137272,-0.05113269,-0.07989483
1691752810968265,0.07661445,0.17238252,9.46667385,-0.07989483,-0.05219796,-0.07243798
1691752810970270,-0.13886370,-0.02394202,9.60553741,-0.10120012,-0.03515373,-0.06924219
1691752810972215,0.11013328,0.04309563,9.40921307,-0.11611383,-0.02556635,-0.05113269
1691752810974270,0.11492168,-0.08140286,9.53849983,-0.14061491,-0.02343582,-0.04474111
1691752810976267,-0.08619126,-0.08140286,9.63426781,-0.15978967,-0.05326322,-0.04900216
1691752810978220,0.25378537,0.12928689,9.44273186,-0.18109496,-0.05113269,-0.05539375
1691752810980253,0.01436521,0.04788403,9.73961258,-0.22370553,-0.07137272,-0.06178534
1691752810982292,0.16280572,0.30645782,9.67736340,-0.23755397,-0.08841695,-0.06072007
1691752810984239,0.28730419,0.14844051,9.63905621,-0.25033715,-0.11185277,-0.05432849
1691752810986262,-0.04788403,0.03830723,9.94072533,-0.25672874,-0.12144014,-0.06498113
1691752810988247,0.32561144,0.22984336,9.74440098,-0.25779399,-0.11078750,-0.07137272
1691752810990303,0.16280572,-0.15322891,10.01733971,-0.29294771,-0.13315806,-0.05006743
1691752810992242,0.14365210,0.00957681,10.19451046,-0.35153726,-0.15126754,-0.05113269
1691752810994237,0.13407530,-0.27293900,10.29985619,-0.41651839,-0.13635385,-0.04474111
1691752810996236,0.13886370,0.00478840,10.37647057,-0.45167211,-0.14913702,-0.03408846
1691752810998284,0.31124622,0.13407530,10.36210537,-0.48789111,-0.16085494,-0.02663161
1691752811000267,0.13407530,-0.17238252,10.44829655,-0.49428269,-0.17257284,-0.03408846
1691752811002202,0.12449849,0.22984336,10.45308495,-0.49215218,-0.15872440,-0.03621899
1691752811004313,0.16280572,-0.15322891,10.43393135,-0.47617319,-0.16937704,-0.01704423
1691752811006265,0.13407530,0.38786069,10.39083576,-0.49215218,-0.15446334,-0.02237055
1691752811008367,0.12928689,0.03830723,10.33816338,-0.48895636,-0.14807175,-0.02450108
1691752811010273,0.05267244,-0.16280572,10.32858658,-0.43569314,-0.16405073,-0.02556635
1691752811012211,0.06703765,0.54108959,10.20408726,-0.38562572,-0.13954964,-0.04687164
1691752811014296,0.16280572,0.56503159,9.90241814,-0.28655612,-0.13635385,-0.02450108
1691752811016272,-0.01436521,0.65122288,9.76834297,-0.15872440,-0.15126754,0.00639159
1691752811018275,0.00000000,0.86191261,9.50019264,-0.07243798,-0.10972223,-0.04261058
1691752811020224,-0.05267244,0.65122288,9.40921307,0.01917476,-0.09480853,-0.03728426
1691752811022222,0.01915361,0.93852705,9.38048267,0.11078750,-0.07563377,0.01597897
1691752811024263,-0.02394202,0.72783732,9.15063858,0.19387813,-0.04048005,0.01171791
1691752811026272,-0.16280572,0.80924016,9.16979218,0.24288028,-0.00532632,-0.03621899
1691752811028234,-0.09576806,0.80924016,9.16979218,0.24820662,-0.00213053,0.00852212
1691752811030257,-0.19632454,0.49320555,9.06444740,0.17683390,0.03834952,0.00745685
1691752811032258,-0.21547815,0.35913026,9.15063858,0.10865697,0.04154531,0.01065264
1691752811034364,-0.05746084,-0.01915361,9.22725296,0.08735169,0.00852212,-0.00213053
1691752811036219,-0.09576806,0.25378537,9.30865574,-0.04367584,0.04900216,-0.01597897
1691752811038241,-0.05746084,-0.36870706,9.35175228,-0.06817693,0.00106526,-0.02343582
1691752811040327,0.04309563,-0.20111294,9.44273186,-0.17470337,0.01065264,-0.03515373
1691752811042201,-0.04309563,-0.25857377,9.58638382,-0.22264026,-0.03515373,-0.03302320
1691752811044245,0.09576806,-0.45010993,9.75876617,-0.29081720,-0.04474111,-0.01171791
1691752811046223,0.06224924,-0.22984336,9.86889935,-0.33449304,-0.07882957,-0.02343582
1691752811048490,0.24420857,-0.33997664,9.89284134,-0.39840889,-0.08948221,-0.01065264
1691752811050246,0.23942018,-0.16280572,10.18014526,-0.42290998,-0.11291803,-0.01917476
1691752811052228,0.15322891,-0.24899697,10.18493366,-0.43143210,-0.14274544,0.00000000
1691752811054225,0.26815060,-0.15322891,10.11789608,-0.46445531,-0.12889700,-0.01810949
1691752811056260,-0.01915361,-0.14365210,10.35252857,-0.44315001,-0.15233281,-0.00106526
1691752811058287,0.20111294,-0.23463176,10.18014526,-0.40799627,-0.13741912,-0.00319579
1691752811060283,0.18195933,0.16280572,10.24239445,-0.37923414,-0.10972223,0.02024002
1691752811062214,-0.00478840,0.16759412,10.12747288,-0.30040458,-0.07350325,0.02982740
1691752811064241,0.25857377,0.53151280,9.80186176,-0.19068234,-0.06498113,0.02450108
1691752811066282,-0.09576806,0.55545479,9.94072533,-0.10439591,-0.02237055,0.02450108
1691752811068270,-0.05746084,0.50757074,9.79707336,-0.00319579,0.04048005,0.00639159
1691752811070253,0.01915361,0.67516488,9.69172859,0.07030746,0.04580637,0.01278317
1691752811072235,-0.27772740,0.55066639,9.77791977,0.12996227,0.05752428,0.00319579
1691752811074423,-0.06703765,0.65122288,9.62947941,0.16405073,0.08522116,0.02450108
1691752811076266,-0.12449849,0.26815060,9.72045898,0.15339808,0.12037488,-0.00319579
1691752811078369,-0.13407530,0.38786069,9.59596062,0.13635385,0.10439591,0.02343582
1691752811080253,0.00957681,0.42137951,9.48103905,0.11824435,0.09800433,-0.01171791
1691752811082227,-0.04788403,0.02873042,9.66299820,0.07350325,0.11717909,0.02237055
1691752811084297,0.11013328,0.04309563,9.50976944,0.03834952,0.09374327,0.02876214
1691752811086226,0.08140286,-0.02394202,9.61990261,0.00106526,0.10226539,0.02024002
1691752811088215,-0.02394202,-0.11492168,9.75397778,-0.03728426,0.05752428,-0.00319579
1691752811090300,0.23942018,-0.01915361,9.65820980,-0.07776430,0.06498113,0.01278317
1691752811092257,0.19153613,-0.17238252,9.90241814,-0.10759171,0.02343582,-0.01384844
1691752811094267,0.15322891,-0.10055647,9.84016895,-0.15552860,-0.01065264,-0.00426106
1691752811096221,0.44053310,0.08619126,9.90720654,-0.20772657,-0.04048005,-0.01065264
1691752811098288,0.19153613,-0.24420857,10.11310768,-0.23116238,-0.06072007,-0.00106526
1691752811100251,0.37828386,-0.02873042,9.90720654,-0.23861924,-0.09374327,-0.00106526
1691752811102240,0.26336220,-0.06224924,10.14183807,-0.22370553,-0.13422331,0.01278317
1691752811104229,0.14365210,-0.11492168,10.15141487,-0.20453078,-0.11930962,0.00000000
1691752811106255,0.45489833,0.25378537,9.97903252,-0.16511598,-0.12570120,0.00745685
1691752811108319,0.12928689,0.14844051,10.23281765,-0.09693906,-0.12357067,0.02769688
1691752811110283,0.23463176,0.39264908,9.98382092,-0.06072007,-0.08309063,0.00852212
1691752811112223,0.17717093,0.31124622,10.01255131,-0.01917476,-0.06711166,0.03089267
1691752811114226,-0.09576806,0.25378537,10.09874249,0.02130529,-0.03728426,0.02982740
1691752811116325,0.13886370,0.53151280,9.79228497,0.07243798,-0.00639159,0.01597897
1691752811118266,-0.18195933,0.37828386,10.03170490,0.11398330,0.01917476,0.02556635
1691752811120281,0.00000000,0.55066639,9.87368774,0.12783173,0.03089267,0.02982740
1691752811122215,0.08140286,0.44053310,9.81143856,0.13741912,0.04048005,0.03515373
1691752811124294,-0.20590134,0.20111294,10.05085850,0.13422331,0.04793690,0.03195793
1691752811126263,0.19632454,0.35434186,9.91199493,0.11185277,0.03195793,0.04154531
1691752811128278,-0.10534488,0.13886370,10.11310768,0.10652644,0.03089267,0.03089267
1691752811130229,0.04309563,0.18195933,10.02212811,0.09800433,0.00745685,0.04793690
1691752811132311,0.34476504,0.23942018,9.97424412,0.06924219,-0.00106526,0.03834952
1691752811134331,0.00478840,-0.00478840,10.16578007,0.00958738,-0.02876214,0.02450108
1691752811136245,0.33518824,0.07182605,9.98860931,-0.02024002,-0.03515373,0.01065264
1691752811138344,0.09576806,0.00478840,10.24239445,-0.02982740,-0.05326322,-0.01065264
1691752811140241,0.04309563,0.07182605,10.23760605,-0.04261058,-0.07030746,-0.00532632
1691752811142258,0.33039984,0.29209262,9.96945572,-0.01704423,-0.08841695,-0.01384844
1691752811144286,0.05746084,0.00957681,10.20408726,0.02130529,-0.10439591,-0.00106526
1691752811146257,0.29688102,0.54108959,9.74440098,0.11930962,-0.08202536,0.00745685
1691752811148256,0.13407530,0.28251579,9.94072533,0.16405073,-0.09054748,0.02769688
1691752811150432,-0.10534488,0.35434186,10.06522369,0.21624868,-0.07456851,0.01810949
1691752811152231,0.12928689,0.52672440,9.68215179,0.24820662,-0.05752428,0.00639159
1691752811154227,-0.08140286,0.25378537,9.89762974,0.27803403,-0.01065264,0.00639159
1691752811156243,0.15801731,0.50278234,9.80186176,0.29827404,-0.01171791,0.02237055
1691752811158272,0.11492168,0.40701428,9.81622696,0.29507825,0.01171791,0.02130529
1691752811160316,-0.11492168,0.16759412,10.00776291,0.29614350,0.04367584,0.03621899
1691752811162209,0.16280572,0.29209262,9.68215179,0.29401299,0.04261058,0.05006743
1691752811164192,-0.17717093,0.01915361,9.92636013,0.26951191,0.03515373,0.06285060
1691752811166315,-0.07661445,0.00478840,9.90720654,0.25885925,0.02663161,0.03728426
1691752811168255,0.13886370,0.01436521,9.80186176,0.24288028,0.03515373,0.03408846
1691752811170261,-0.03351882,-0.06703765,10.13704967,0.21731395,0.00319579,0.02450108
1691752811172225,0.18195933,0.22026655,9.90720654,0.20666130,0.00852212,0.03195793
1691752811174253,0.11971009,0.08619126,9.90720654,0.22370553,-0.00213053,0.01704423
1691752811176231,0.09097967,0.17238252,9.92636013,0.23968449,0.01171791,0.01704423
1691752811178273,0.21068975,0.30166942,9.67736340,0.27590349,0.00213053,0.01384844
1691752811180231,0.00957681,0.03830723,9.86411095,0.31957933,-0.00319579,0.02343582
1691752811182207,0.11971009,0.27772740,9.64863300,0.34088463,0.02024002,0.00852212
1691752811184283,0.11013328,0.21547815,9.47625065,0.38242993,0.03195793,-0.00532632
1691752811186300,0.04309563,0.16759412,9.69172859,0.39414784,0.03302320,-0.00745685
1691752811188233,0.21547815,0.32082301,9.51934624,0.39095205,0.01384844,0.00213053
1691752811190252,0.02394202,0.16280572,9.60074902,0.35686359,0.02343582,-0.00745685
1691752811192262,0.10055647,0.20111294,9.69172859,0.34727621,0.02450108,-0.00745685
1691752811194269,0.15801731,0.10534488,9.64384460,0.31638354,0.01384844,0.00745685
1691752811196295,-0.05746084,-0.12449849,9.82101536,0.29081720,0.01065264,0.00319579
1691752811198226,0.08619126,0.00478840,9.79228497,0.25246766,0.01171791,-0.00426106
1691752811200320,0.03830723,-0.09097967,9.81143856,0.23009712,0.00213053,0.00426106
1691752811202215,0.15801731,-0.03830723,9.82101536,0.23329291,0.01704423,0.00213053
1691752811204276,0.20111294,0.00957681,9.76834297,0.24607609,0.02237055,-0.00213053
1691752811206251,0.04309563,-0.03351882,9.82580376,0.25246766,0.02982740,-0.00852212
1691752811208293,0.12449849,0.17717093,9.77791977,0.24820662,0.04687164,-0.00426106
1691752811210262,-0.03351882,0.09576806,9.78270817,0.25779399,0.05432849,-0.01171791
1691752811212259,0.13407530,0.18195933,9.70130539,0.25246766,0.06711166,-0.02343582
1691752811214263,0.17238252,0.18195933,9.75876617,0.24714135,0.06924219,-0.00426106
1691752811216282,-0.05746084,-0.00957681,9.80186176,0.22583605,0.08096009,-0.01278317
1691752811218324,0.15322891,0.14844051,9.75397778,0.21198763,0.08202536,-0.01171791
1691752811220291,-0.18674773,0.00957681,9.95030212,0.20772657,0.09054748,-0.02130529
1691752811222222,0.00000000,0.13407530,9.77791977,0.20133498,0.10546118,-0.01065264
1691752811224240,0.16280572,0.25857377,9.85453415,0.19600865,0.11717909,-0.02769688
1691752811226282,-0.09576806,-0.09576806,9.98860931,0.19494340,0.11717909,-0.02024002
1691752811228285,0.31603462,0.22984336,9.77791977,0.18748654,0.11504856,-0.02556635
1691752811230258,-0.07182605,0.11492168,10.14183807,0.17257284,0.12037488,-0.01491370
1691752811232230,0.00478840,0.12449849,10.02212811,0.16511598,0.10759171,-0.01171791
1691752811234322,0.24420857,0.25378537,9.95987892,0.14487596,0.10013486,-0.01278317
1691752811236258,-0.13407530,-0.19153613,10.22802925,0.12889700,0.09374327,-0.01597897
1691752811238288,0.33039984,0.07661445,9.94072533,0.12250541,0.07989483,-0.01491370
1691752811240236,0.12928689,0.01436521,10.26154804,0.11824435,0.06178534,-0.02450108
1691752811242249,0.15801731,0.00478840,10.24239445,0.08522116,0.05326322,-0.03941479
1691752811244271,0.43095630,0.18195933,10.11789608,0.06817693,0.03089267,-0.03408846
1691752811246247,-0.03830723,-0.10055647,10.40041256,0.05432849,0.00958738,-0.02769688
1691752811248262,0.27293900,0.16280572,10.07958889,0.05965481,0.01171791,-0.03408846
1691752811250299,0.12928689,0.00478840,10.33816338,0.06391586,-0.00106526,-0.02130529
1691752811252242,0.16759412,-0.07661445,10.31422138,0.04687164,0.00532632,-0.02237055
1691752811254262,0.34476504,0.08140286,10.12747288,0.03408846,0.00106526,-0.04474111
1691752811256250,-0.00478840,-0.01436521,10.49139214,0.02024002,0.02024002,-0.05006743
1691752811258384,0.23942018,0.23942018,10.26633644,0.00639159,0.02450108,-0.04367584
1691752811260251,0.09576806,0.01436521,10.42914295,0.00213053,0.03515373,-0.04687164
1691752811262247,0.02394202,-0.06703765,10.43393135,0.00000000,0.02982740,-0.04687164
1691752811264231,0.20111294,0.11013328,10.27591324,0.00213053,0.03408846,-0.04793690
1691752811266255,-0.08140286,0.04788403,10.56321812,-0.00213053,0.03728426,-0.03728426
1691752811268255,0.20590134,0.28251579,10.27591324,0.00426106,0.03408846,-0.02024002
1691752811270243,0.13886370,0.10534488,10.32858658,0.03089267,0.02237055,-0.01384844
1691752811272206,0.08140286,0.11971009,10.36210537,0.05006743,0.03195793,-0.01065264
1691752811274232,0.23942018,0.18674773,10.17056847,0.04687164,0.02450108,-0.01810949
1691752811276437,-0.02873042,0.02873042,10.34774017,0.03195793,0.02024002,-0.01597897
1691752811278304,0.18674773,0.20590134,10.13226128,0.02876214,0.01171791,-0.02024002
1691752811280244,0.14365210,0.02873042,10.18014526,0.02556635,0.00745685,-0.02769688
1691752811282229,0.13407530,0.03830723,10.24239445,0.01810949,0.01171791,-0.03089267
1691752811284275,0.24420857,0.10055647,10.09395409,0.00532632,0.02024002,-0.02024002
1691752811286247,0.08619126,0.02873042,10.21845245,-0.00213053,0.03089267,-0.01917476
1691752811288289,0.22505496,0.17238252,10.12747288,0.00106526,0.02769688,-0.01491370
1691752811290231,0.09097967,0.00478840,10.17056847,-0.00532632,0.04580637,-0.01491370
1691752811292270,0.07182605,0.04309563,10.10831928,0.00639159,0.04687164,-0.01278317
1691752811294264,0.10055647,0.13407530,10.07958889,0.01384844,0.03728426,-0.01597897
1691752811296281,0.01915361,0.03830723,10.11789608,0.01384844,0.02982740,-0.00958738
1691752811298250,0.16280572,0.15322891,10.04128170,0.01491370,0.01810949,-0.01171791
1691752811300296,0.05746084,0.03830723,10.14662647,0.01917476,-0.00213053,-0.01278317
1691752811302258,0.18195933,0.10055647,9.99339771,-0.00106526,-0.00639159,-0.01384844
1691752811304261,0.13407530,0.12928689,10.07958889,-0.02024002,-0.00532632,-0.02343582
1691752811306255,0.14365210,-0.01915361,10.12268448,-0.03195793,-0.01065264,-0.03302320
1691752811308245,0.18195933,0.06224924,10.07001209,-0.04900216,-0.00639159,-0.03408846
1691752811310402,-0.07182605,0.00478840,10.27112484,-0.06178534,0.00106526,-0.02343582
1691752811312217,0.16280572,0.09576806,10.03649330,-0.05113269,0.00426106,-0.02024002
1691752811314228,0.14365210,0.19153613,10.13226128,-0.04367584,0.00745685,-0.02556635
1691752811316226,0.15322891,0.16759412,10.07480049,-0.03834952,0.00426106,-0.01704423
1691752811318291,0.19153613,0.16280572,9.88805294,-0.00852212,-0.00319579,-0.01278317
1691752811320327,-0.06703765,0.12928689,10.07958889,0.01065264,0.00319579,-0.00532632
1691752811322207,0.09576806,0.16759412,9.79707336,0.00639159,-0.00532632,-0.00319579
1691752811324280,0.05267244,0.17238252,9.93593693,0.00106526,-0.01810949,0.00106526
1691752811326257,0.10055647,0.13407530,9.98860931,0.01171791,-0.02024002,0.00319579
1691752811328237,0.25857377,0.12449849,9.77313137,0.01597897,-0.02024002,0.00000000
1691752811330331,-0.00957681,0.16280572,10.08437729,0.00106526,-0.01704423,-0.00106526
1691752811332249,0.15322891,0.11971009,9.86889935,-0.03302320,-0.00532632,-0.00213053
1691752811334267,0.03351882,0.10534488,9.95509052,-0.03834952,0.00958738,-0.02130529
1691752811336242,-0.02394202,0.10055647,10.14662647,-0.04580637,0.01704423,-0.01597897
1691752811338366,0.15322891,-0.05267244,9.93593693,-0.06924219,0.02982740,-0.00532632
1691752811340230,-0.14844051,-0.01915361,10.25197124,-0.08522116,0.04261058,-0.00213053
1691752811342253,0.07661445,0.02873042,10.07001209,-0.08735169,0.04474111,-0.00958738
1691752811344271,0.09097967,0.17717093,10.01733971,-0.08202536,0.04793690,-0.00958738
1691752811346302,0.07182605,0.27772740,10.18014526,-0.06924219,0.06072007,-0.01171791
1691752811348243,0.25378537,0.06224924,9.93114853,-0.06391586,0.04580637,-0.01384844
1691752811350243,-0.03351882,0.11492168,10.12268448,-0.07137272,0.02663161,-0.00106526
1691752811352254,0.04788403,-0.05267244,10.02212811,-0.07669904,0.03195793,0.00213053
1691752811354266,0.08619126,-0.08619126,9.97424412,-0.07776430,0.01704423,0.00745685
1691752811356233,0.12928689,0.23942018,10.19451046,-0.09267800,0.00532632,0.00958738
1691752811358232,0.30166942,-0.07661445,10.00297451,-0.10226539,0.00745685,0.00106526
1691752811360360,0.10055647,0.14844051,10.10353088,-0.10226539,0.00106526,-0.00745685
1691752811362221,0.17717093,0.10534488,10.20887566,-0.11717909,-0.00213053,-0.00532632
1691752811364259,0.07661445,-0.17238252,10.24239445,-0.13848437,-0.00319579,0.00000000
1691752811366299,0.07182605,0.13407530,10.35731697,-0.15020229,-0.01810949,-0.00532632
1691752811368357,0.11492168,-0.23942018,10.31422138,-0.16937704,-0.02876214,-0.00639159
1691752811370246,0.13886370,0.10055647,10.33337498,-0.19174761,-0.03941479,-0.01065264
1691752811372234,0.29688102,0.12928689,10.38125896,-0.19707392,-0.05539375,-0.00639159
1691752811374273,0.16759412,-0.19153613,10.34774017,-0.18535601,-0.05858954,0.01065264
1691752811376388,0.16280572,0.39264908,10.21366405,-0.18216021,-0.05006743,0.02024002
1691752811378300,0.04788403,-0.06224924,10.15620327,-0.18322548,-0.04261058,0.02769688
1691752811380254,0.07661445,0.08619126,10.11789608,-0.17363811,-0.03195793,0.01171791
1691752811382270,0.15801731,0.18195933,10.14183807,-0.14913702,-0.02769688,0.00426106
1691752811384280,0.04788403,-0.13407530,10.26154804,-0.15126754,-0.00639159,-0.01810949
1691752811386262,0.17717093,0.40701428,10.18972206,-0.15552860,0.00745685,-0.00852212
1691752811388279,-0.01915361,0.05267244,10.19929886,-0.13635385,0.01597897,-0.00745685
1691752811390226,0.00478840,0.21068975,10.13226128,-0.14700650,0.03089267,0.00000000
1691752811392227,0.12449849,0.28730419,10.14183807,-0.16618125,0.05326322,0.00745685
1691752811394248,-0.11013328,-0.12928689,10.24239445,-0.16298546,0.05219796,0.02237055
1691752811396300,0.12449849,0.35434186,9.94551373,-0.13528858,0.02556635,0.01597897
1691752811398257,-0.03351882,0.11971009,10.08437729,-0.12996227,0.01597897,0.00532632
1691752811400266,0.05746084,0.22984336,10.07958889,-0.12570120,0.01065264,0.02024002
1691752811402349,0.29688102,0.33039984,9.94551373,-0.13102752,-0.00745685,0.03195793
1691752811404326,-0.01436521,-0.12928689,10.14183807,-0.12357067,-0.03621899,0.03302320
1691752811406238,0.20111294,0.24420857,9.97903252,-0.11398330,-0.06391586,0.02556635
1691752811408299,0.05746084,0.09576806,10.18493366,-0.12037488,-0.05858954,0.02130529
1691752811410337,0.16280572,0.11971009,10.16578007,-0.14594123,-0.06604639,0.01917476
1691752811412245,0.39264908,0.26336220,10.00297451,-0.16618125,-0.06072007,0.00958738
1691752811414264,0.05267244,-0.12449849,10.29506683,-0.16831177,-0.06604639,0.00532632
1691752811416262,0.22505496,0.19632454,10.16099167,-0.18002969,-0.06924219,-0.00319579
1691752811418304,0.05267244,-0.01436521,10.30943298,-0.20026971,-0.06498113,0.01491370
1691752811420275,0.03351882,-0.05267244,10.30464458,-0.20666130,-0.06391586,0.00958738
1691752811422224,0.24899697,0.11971009,10.14662647,-0.19707392,-0.07137272,0.00639159
1691752811424289,0.01915361,-0.07661445,10.44829655,-0.19707392,-0.07989483,0.00958738
1691752811426445,0.23463176,0.30645782,10.25675964,-0.19068234,-0.06817693,0.02876214
1691752811428266,0.08140286,0.12928689,10.26154804,-0.15872440,-0.06924219,0.04687164
1691752811430226,0.02394202,0.21068975,10.22324085,-0.14274544,-0.03515373,0.04261058
1691752811432211,0.19632454,0.22984336,10.07480049,-0.11398330,-0.02556635,0.05326322
1691752811434278,-0.08140286,-0.00478840,10.36210537,-0.09587380,-0.01171791,0.04048005
1691752811436276,0.14365210,0.36870706,10.16099167,-0.08735169,-0.00639159,0.04793690
1691752811438250,0.04788403,0.22505496,10.19929886,-0.09693906,0.00532632,0.02769688
1691752811440249,0.00957681,0.24899697,10.31422138,-0.10013486,0.00106526,0.05006743
1691752811442240,0.24420857,0.18674773,10.09874249,-0.12676647,0.01171791,0.02769688
1691752811444300,-0.03351882,-0.12928689,10.27112484,-0.15020229,-0.00745685,0.03089267
1691752811446283,0.16759412,0.18195933,10.15620327,-0.15872440,-0.03089267,0.00000000
1691752811448224,0.09097967,0.04309563,10.19451046,-0.14594123,-0.04367584,0.00532632
1691752811450298,0.19632454,0.17238252,10.27112484,-0.13102752,-0.05645901,-0.00426106
1691752811452267,0.36391866,0.18674773,10.16578007,-0.11611383,-0.07776430,0.00639159
1691752811454262,0.10534488,-0.04788403,10.29506683,-0.11504856,-0.10439591,0.00852212
1691752811456276,0.27293900,0.15801731,10.19451046,-0.13102752,-0.12037488,0.01384844
1691752811458260,0.18195933,-0.11492168,10.22324085,-0.13848437,-0.12463594,0.01704423
1691752811460303,0.18674773,0.12449849,10.17056847,-0.14061491,-0.14168017,0.01810949
1691752811462249,0.25378537,0.24899697,10.07958889,-0.13528858,-0.15872440,0.01810949
1691752811464251,0.15322891,0.12928689,10.08916569,-0.12783173,-0.16085494,0.02450108
1691752811466263,0.29209262,0.45010993,10.01255131,-0.10226539,-0.17363811,0.02769688
1691752811468320,0.10055647,0.03830723,10.07480049,-0.08841695,-0.17257284,0.03834952
1691752811470285,0.05267244,0.21547815,10.02691650,-0.05539375,-0.15978967,0.03089267
1691752811472215,0.06224924,0.26815060,9.98382092,-0.03195793,-0.14274544,0.03089267
1691752811474232,-0.01915361,0.18674773,9.89762974,-0.00958738,-0.10013486,0.02130529
1691752811476280,0.13407530,0.58897364,9.71088219,0.04687164,-0.06817693,0.01171791
1691752811478265,-0.02394202,0.30645782,9.75876617,0.09693906,-0.01704423,0.03089267
1691752811480276,0.00478840,0.61291564,9.65342140,0.12144014,0.03302320,0.02237055
1691752811482216,0.04309563,0.52672440,9.67257500,0.12463594,0.03089267,0.03195793
1691752811484249,-0.15322891,0.11971009,9.77313137,0.11717909,0.03621899,0.03728426
1691752811486315,0.07182605,0.29688102,9.66299820,0.08735169,0.02769688,0.06391586
1691752811488255,-0.16759412,-0.09576806,9.87847614,0.05539375,0.03302320,0.04580637
1691752811490237,-0.03830723,-0.05746084,9.69651699,0.02024002,-0.00426106,0.04474111
1691752811492284,0.18674773,0.22505496,9.73003578,-0.01171791,0.00213053,0.03515373
1691752811494299,-0.01436521,-0.15801731,9.92157173,-0.01597897,-0.02343582,0.02876214
1691752811496253,0.39743748,0.21068975,9.57680702,-0.00319579,-0.03408846,0.02237055
1691752811498241,0.10055647,0.04788403,9.84495735,-0.01278317,-0.03834952,0.02769688
1691752811500253,0.14844051,-0.06703765,9.75876617,-0.01810949,-0.05432849,0.00532632
1691752811502370,0.33518824,0.17238252,9.63905621,-0.01917476,-0.06072007,0.01491370
1691752811504244,-0.08619126,-0.15801731,9.91199493,-0.00852212,-0.07563377,0.00319579
1691752811506235,0.23463176,0.22026655,9.57680702,0.00639159,-0.08309063,0.01810949
1691752811508254,0.13407530,0.31603462,9.76834297,0.03195793,-0.08415589,0.02769688
1691752811510280,0.08140286,0.11492168,9.72045898,0.07563377,-0.05539375,0.04154531
1691752811512268,0.37828386,0.55066639,9.48103905,0.12357067,-0.05113269,0.02343582
1691752811514239,-0.03830723,0.29688102,9.89284134,0.13528858,-0.04261058,0.02982740
1691752811516234,0.11013328,0.31124622,9.66778660,0.13528858,-0.03621899,0.02130529
1691752811518259,0.25857377,0.44053310,9.59117222,0.13954964,-0.02024002,0.01917476
1691752811520303,-0.21068975,-0.11971009,9.89762974,0.12144014,-0.02024002,0.00426106
1691752811522251,0.18195933,0.23463176,9.64863300,0.11291803,-0.00852212,0.01810949
1691752811524230,0.13407530,0.38307226,9.79707336,0.12037488,-0.00958738,0.01491370
1691752811526266,0.09576806,0.15322891,9.80665016,0.12463594,0.00532632,0.01065264
1691752811528260,0.18674773,0.36391866,9.76355457,0.10546118,0.03302320,0.01065264
1691752811530255,-0.09576806,-0.08140286,9.96945572,0.10226539,0.05113269,0.01597897
1691752811532218,-0.00478840,0.02394202,9.74918938,0.09587380,0.07243798,0.00532632
1691752811534308,0.09576806,0.27293900,9.64863300,0.10546118,0.10439591,-0.00106526
1691752811536431,-0.03830723,0.18195933,9.74918938,0.13954964,0.12889700,0.00532632
1691752811538256,0.07182605,0.33039984,9.49061584,0.17363811,0.10865697,-0.00319579
1691752811540245,-0.11492168,0.23463176,9.71088219,0.17044231,0.10652644,-0.00958738
1691752811542239,-0.04309563,0.23463176,9.75876617,0.15659387,0.10759171,0.01597897
1691752811544314,0.25378537,0.35434186,9.58638382,0.16085494,0.05858954,0.02663161
1691752811546232,0.07661445,-0.01436521,9.75876617,0.15552860,0.02982740,0.03408846
1691752811548238,0.28251579,0.31603462,9.59596062,0.15020229,-0.00532632,-0.00213053
1691752811550231,0.16759412,0.14365210,9.67257500,0.16085494,-0.03941479,0.01171791
1691752811552267,0.33518824,0.17717093,9.51934624,0.16937704,-0.04793690,0.00745685
1691752811554294,0.40701428,0.39743748,9.48103905,0.16937704,-0.05006743,0.00532632
1691752811556238,0.20590134,0.18195933,9.53849983,0.17896442,-0.04793690,0.00319579
1691752811558257,0.27772740,0.36870706,9.30386734,0.21518342,-0.01810949,0.01384844
1691752811560321,0.07661445,0.20590134,9.39005947,0.23861924,0.02237055,0.00319579
1691752811562235,-0.01915361,0.18195933,9.38527107,0.26205504,0.02024002,-0.01810949
1691752811564295,0.09097967,0.34955344,9.34217548,0.26098979,0.04261058,0.00852212
1691752811566240,-0.15801731,0.11013328,9.42836666,0.23009712,0.05752428,-0.01491370
1691752811568256,0.07182605,0.09097967,9.38527107,0.20240024,0.06072007,0.02024002
1691752811570317,-0.11013328,-0.00957681,9.66778660,0.15233281,0.07030746,-0.00852212
1691752811572217,-0.06224924,-0.06224924,9.58638382,0.13528858,0.05965481,-0.00745685
1691752811574270,0.08140286,0.03351882,9.72524738,0.09161274,0.05965481,-0.03834952
1691752811576280,-0.05746084,-0.16759412,9.82580376,0.07669904,0.03834952,-0.02024002
1691752811578308,0.21547815,0.02873042,9.55286503,0.02876214,0.03941479,-0.02130529
1691752811580262,0.10534488,0.01915361,9.80186176,0.03089267,0.01065264,-0.01704423
1691752811582199,0.09097967,-0.09097967,9.78270817,0.02982740,0.00852212,-0.01491370
1691752811584249,0.35913026,0.13886370,9.57680702,0.01810949,-0.01278317,-0.01065264
1691752811586272,-0.01915361,-0.12928689,9.91678333,0.02130529,-0.02769688,0.00532632
1691752811588281,0.40701428,0.33997664,9.47625065,0.06924219,-0.03728426,0.01704423
1691752811590259,0.06703765,0.19153613,9.64384460,0.10120012,-0.02982740,0.02450108
1691752811592233,-0.05267244,0.08619126,9.66299820,0.13209279,-0.01597897,0.01278317
1691752811594294,0.30645782,0.33039984,9.37090588,0.14274544,-0.02556635,0.00213053
1691752811596266,-0.15322891,0.03351882,9.68694019,0.13422331,-0.00213053,-0.01278317
1691752811598239,0.15322891,0.12449849,9.48103905,0.13954964,0.00532632,-0.01278317
1691752811600236,0.22026655,0.24420857,9.49540424,0.14913702,0.01065264,-0.00852212
1691752811602263,-0.11492168,0.07661445,9.73961258,0.15020229,0.00852212,-0.00106526
1691752811604275,0.21547815,0.39264908,9.41878986,0.14274544,0.01491370,-0.00106526
1691752811606258,-0.00478840,0.10055647,9.81622696,0.13102752,0.01278317,0.00426106
1691752811608265,0.09576806,-0.04788403,9.71088219,0.10972223,0.00319579,0.01171791
1691752811610284,0.18674773,0.13886370,9.62469101,0.07137272,-0.01704423,0.01171791
1691752811612330,-0.06224924,-0.15322891,10.06043530,0.04474111,-0.02024002,0.01917476
1691752811614249,0.32082301,0.07661445,9.77313137,0.01704423,-0.02024002,0.01278317
1691752811616213,0.15322891,0.05267244,9.96466732,-0.01491370,-0.03621899,0.00319579
1691752811618257,0.23942018,-0.05267244,9.90241814,-0.04261058,-0.05432849,0.00213053
1691752811620302,0.17238252,0.08619126,9.85453415,-0.05539375,-0.04900216,-0.00319579
1691752811622239,0.03351882,-0.08140286,10.08916569,-0.06391586,-0.03941479,-0.00958738
1691752811624245,0.19153613,0.00957681,9.90241814,-0.04900216,-0.05645901,-0.00426106
1691752811626293,0.05267244,0.08140286,9.92636013,-0.00426106,-0.04687164,0.00958738
1691752811628291,0.10055647,0.02873042,9.92636013,0.03302320,-0.02024002,-0.00958738
1691752811630275,0.13886370,0.24420857,9.91199493,0.06391586,0.00213053,-0.01384844
1691752811632220,0.09576806,0.31124622,9.97424412,0.07243798,0.01171791,-0.00532632
1691752811634271,0.11971009,0.37349546,9.84016895,0.09693906,0.03621899,-0.01384844
1691752811636266,-0.05746084,0.42616791,9.83538055,0.13741912,0.08202536,-0.02130529
1691752811638246,0.01915361,0.25378537,9.70130539,0.18002969,0.10013486,-0.02024002
1691752811640301,-0.02394202,0.30166942,9.72524738,0.18535601,0.10759171,-0.00532632
1691752811642217,-0.21547815,0.16759412,9.73482418,0.17363811,0.11611383,-0.00639159
1691752811644278,0.01915361,0.15801731,9.65820980,0.16618125,0.13741912,0.01810949
1691752811646307,-0.13407530,0.23463176,9.90720654,0.14487596,0.13635385,0.00213053
1691752811648251,0.13886370,0.11971009,9.75876617,0.09161274,0.11504856,0.03621899
1691752811650239,0.18674773,0.07661445,9.90720654,0.04687164,0.09374327,0.01810949
1691752811652226,-0.07182605,-0.13886370,10.05564690,-0.00213053,0.07350325,0.04154531
1691752811654283,0.38786069,-0.10055647,9.82101536,-0.04687164,0.06498113,0.00852212
1691752811656266,0.00478840,-0.14844051,10.23760605,-0.08309063,0.02343582,0.01065264
1691752811658245,0.22505496,-0.17238252,9.98382092,-0.11078750,0.01810949,-0.01384844
1691752811660269,0.18195933,-0.14844051,9.98382092,-0.13102752,-0.02450108,-0.01491370
1691752811662291,0.01436521,-0.15801731,10.26154804,-0.16511598,-0.01704423,-0.02343582
1691752811664244,0.35913026,-0.18195933,9.87847614,-0.15765914,-0.05432849,-0.01171791
1691752811666244,0.09576806,-0.08619126,10.16099167,-0.11185277,-0.03515373,-0.01491370
1691752811668236,0.21068975,0.18674773,9.97424412,-0.03515373,-0.03089267,0.00213053
1691752811670291,0.07182605,0.27293900,10.03170490,0.00532632,0.00319579,-0.00532632
1691752811672224,0.04788403,0.33039984,9.81622696,0.07243798,0.05006743,-0.00745685
1691752811674243,0.07661445,0.36870706,9.69651699,0.10439591,0.07243798,-0.02024002
1691752811676242,-0.15322891,0.42137951,9.96945572,0.11291803,0.11717909,-0.01278317
1691752811678290,0.04309563,0.38786069,9.64384460,0.13209279,0.13741912,-0.01065264
1691752811680281,-0.08619126,0.34955344,9.77791977,0.13848437,0.17257284,0.01171791
1691752811682225,-0.02873042,0.24420857,9.76834297,0.13635385,0.17044231,0.01917476
1691752811684237,0.06703765,0.20111294,9.63905621,0.08841695,0.19387813,0.02450108
1691752811686288,-0.17717093,-0.02873042,9.94551373,0.07882957,0.17363811,0.02130529
1691752811688320,0.06703765,-0.04309563,9.74918938,0.02130529,0.13954964,0.02769688
1691752811690245,-0.02873042,-0.04788403,9.86411095,-0.03195793,0.09906960,0.00958738
1691752811692224,0.08619126,-0.18195933,10.01733971,-0.08735169,0.07243798,0.01597897
1691752811694289,0.30645782,-0.12928689,9.91678333,-0.11504856,0.04900216,0.00319579
1691752811696281,0.30166942,-0.02873042,10.04607010,-0.17363811,0.01491370,-0.00958738
1691752811698262,0.37349546,-0.03830723,10.04607010,-0.21837921,-0.01917476,-0.01171791
1691752811700242,0.25378537,-0.06224924,10.07958889,-0.23116238,-0.05645901,0.00958738
1691752811702238,0.34955344,-0.04309563,10.13704967,-0.22903186,-0.06178534,0.00958738
1691752811704301,0.15322891,-0.19632454,10.14183807,-0.22050974,-0.05539375,-0.00532632
1691752811706259,0.25378537,0.10055647,10.15141487,-0.21518342,-0.05858954,-0.00532632
1691752811708241,0.15322891,-0.03351882,10.24718285,-0.20346551,-0.02769688,0.00532632
1691752811710255,0.11492168,0.13407530,10.25675964,-0.19813919,0.01491370,-0.01597897
1691752811712282,0.30645782,0.22984336,10.21845245,-0.18642128,0.02130529,-0.00639159
1691752811714255,-0.08140286,0.04788403,10.41956615,-0.16618125,0.03515373,-0.00639159
1691752811716275,0.02394202,0.22984336,10.22802925,-0.15552860,0.05219796,-0.01491370
1691752811718274,-0.02873042,0.06224924,10.21366405,-0.12357067,0.05965481,-0.02556635
1691752811720295,-0.04788403,0.29209262,10.27591324,-0.08948221,0.05006743,-0.00532632
1691752811722230,0.15322891,0.39743748,10.02212811,-0.05006743,0.06178534,0.00639159
1691752811724247,-0.04788403,0.25857377,10.10353088,-0.02450108,0.07882957,-0.01171791
1691752811726254,-0.08140286,0.38786069,10.21366405,0.00745685,0.12250541,-0.01704423
1691752811728259,0.02394202,0.31603462,10.06043530,0.01384844,0.14700650,-0.01917476
1691752811730259,-0.15322891,0.36870706,10.29027843,0.02876214,0.16724652,-0.01171791
1691752811732248,-0.02873042,0.22505496,9.99818611,0.04154531,0.21092236,-0.01171791
1691752811734245,0.03351882,0.25857377,10.08916569,0.04474111,0.20666130,0.01171791
1691752811736268,-0.10534488,0.36870706,10.34774017,0.02343582,0.15978967,0.02982740
1691752811738290,0.07182605,-0.01915361,10.17056847,-0.03515373,0.14168017,0.01597897
1691752811740244,0.00957681,0.11013328,10.34774017,-0.05752428,0.09800433,-0.00106526
1691752811742218,0.18674773,0.07661445,10.21845245,-0.08628642,0.08522116,-0.00958738
1691752811744239,0.25378537,-0.18195933,10.07480049,-0.10439591,0.02343582,-0.00106526
1691752811746411,0.22505496,0.07661445,10.25675964,-0.12250541,-0.01384844,-0.00106526
1691752811748245,0.31124622,-0.29688102,10.03649330,-0.11504856,-0.04474111,0.00000000
1691752811750234,0.32561144,0.08619126,10.04128170,-0.10546118,-0.04900216,0.00426106
1691752811752220,0.24420857,-0.01436521,9.97903252,-0.07137272,-0.05006743,0.01704423
1691752811754265,0.24899697,-0.18674773,9.95030212,-0.04580637,-0.04367584,0.00000000
1691752811756266,0.18195933,0.40222588,10.09874249,-0.04367584,-0.02130529,-0.02024002
1691752811758242,0.19153613,0.01915361,10.04128170,-0.02663161,0.01278317,-0.01171791
1691752811760261,0.10534488,0.07661445,10.02691650,-0.02024002,0.02982740,-0.03195793
1691752811762246,0.11971009,0.46447513,10.13704967,0.01704423,0.05645901,-0.03834952
1691752811764272,0.01436521,0.04309563,10.22324085,-0.01171791,0.09800433,-0.00745685
1691752811766240,0.13886370,0.53151280,10.27112484,-0.00213053,0.11611383,0.00426106
1691752811768240,-0.03830723,0.07182605,10.37647057,0.00426106,0.12144014,0.02237055
1691752811770280,0.00000000,0.09097967,10.28549004,0.00319579,0.12996227,0.02237055
1691752811772272,0.11492168,0.34955344,10.29506683,-0.01597897,0.13102752,0.00319579
1691752811774353,0.06703765,0.02873042,10.38604736,-0.01704423,0.10972223,0.02450108
1691752811776243,0.14844051,0.25857377,10.27591324,-0.04580637,0.10013486,-0.00745685
1691752811778286,0.56981999,0.43574470,10.23760605,-0.07030746,0.07030746,-0.00639159
1691752811780346,1.08217919,1.02950668,9.99339771,-0.05006743,0.04793690,-0.01917476
1691752811782233,0.80445176,0.59376204,10.25197124,-0.06178534,0.04687164,-0.01384844
1691752811784246,0.91937345,0.72783732,10.17056847,-0.06604639,0.02982740,-0.01704423
1691752811786265,0.89064306,0.64164603,10.18014526,-0.07776430,0.01384844,-0.00639159
1691752811788371,0.43095630,0.27293900,10.44829655,-0.08202536,0.01810949,-0.01384844
1691752811790271,0.60812724,0.63206923,10.32858658,-0.09374327,0.02024002,-0.03834952
1691752811792250,0.24899697,0.21068975,10.61110210,-0.09161274,0.02663161,0.00106526
1691752811794238,0.29209262,0.31124622,10.46266174,-0.07882957,0.03515373,0.00639159
1691752811796426,0.16280572,0.07661445,10.52491093,-0.05539375,0.05326322,-0.00958738
1691752811798276,0.10534488,0.14365210,10.62546730,-0.06391586,0.06924219,0.00000000
1691752811800260,0.26336220,0.39264908,10.43871975,-0.07243798,0.06604639,0.01384844
1691752811802240,0.07182605,-0.07182605,10.47702694,-0.07243798,0.06604639,0.00426106
1691752811804315,0.14844051,0.30645782,10.49139214,-0.06604639,0.05752428,0.00319579
1691752811806302,0.10055647,0.09576806,10.39562416,-0.07350325,0.04793690,0.00319579
1691752811808289,0.12449849,0.11971009,10.40520096,-0.07350325,0.02876214,-0.00319579
1691752811810223,0.19632454,0.27293900,10.31422138,-0.08522116,0.01810949,-0.02450108
1691752811812258,0.22026655,0.19153613,10.24718285,-0.06072007,-0.03515373,-0.02769688
1691752811814329,0.19153613,0.34476504,10.26633644,-0.05539375,-0.05113269,-0.03302320
1691752811816259,0.15801731,-0.03351882,10.33816338,-0.04687164,-0.07882957,-0.01810949
1691752811818272,0.30645782,0.13407530,10.20887566,-0.04048005,-0.11611383,-0.02982740
1691752811820253,0.17717093,0.23463176,10.22802925,-0.05539375,-0.13954964,-0.04048005
1691752811822275,0.30645782,-0.24899697,10.16578007,-0.06072007,-0.15446334,-0.04367584
1691752811824309,0.44053310,0.38307226,10.20887566,-0.08309063,-0.17363811,-0.05219796
1691752811826271,0.22505496,-0.14844051,10.29985619,-0.10759171,-0.17576863,-0.02556635
1691752811828287,0.34955344,0.22984336,10.10831928,-0.12250541,-0.17363811,-0.02876214
1691752811830268,0.16280572,0.28730419,10.32379818,-0.10652644,-0.18109496,-0.00532632
1691752811832228,0.22505496,-0.06703765,10.20887566,-0.11824435,-0.15126754,-0.00106526
1691752811834275,0.19153613,0.27772740,10.15141487,-0.11930962,-0.14807175,0.01384844
1691752811836259,-0.08619126,-0.14365210,10.32379818,-0.10865697,-0.13528858,0.00852212
1691752811838331,0.11971009,0.20590134,10.07001209,-0.10865697,-0.10972223,-0.00426106
1691752811840319,0.00000000,0.16759412,10.30464458,-0.10759171,-0.08628642,-0.00852212
1691752811842250,0.04788403,-0.00957681,10.22324085,-0.11398330,-0.07456851,-0.01810949
1691752811844290,0.11013328,0.33518824,10.08437729,-0.09587380,-0.06711166,-0.02237055
1691752811846356,-0.16280572,0.05746084,10.33816338,-0.08096009,-0.06924219,-0.02556635
1691752811848221,0.22505496,0.35913026,10.06522369,-0.05006743,-0.08202536,-0.01917476
1691752811850254,-0.07661445,0.06224924,10.27112484,-0.04261058,-0.11078750,-0.01491370
1691752811852246,0.11013328,0.06703765,10.12747288,-0.04474111,-0.12357067,-0.01597897
1691752811854325,0.17238252,0.04788403,10.15620327,-0.05858954,-0.14061491,-0.01278317
1691752811856277,0.01915361,0.04788403,10.22324085,-0.06604639,-0.15446334,-0.01597897
1691752811858302,0.30166942,0.29688102,9.97424412,-0.07456851,-0.17789917,-0.01704423
1691752811860277,0.22026655,0.11492168,10.05564690,-0.08202536,-0.18535601,-0.01704423
1691752811862264,0.22505496,0.13886370,10.02691650,-0.05752428,-0.17683390,-0.01278317
1691752811864275,0.24420857,0.28251579,9.81622696,-0.02663161,-0.18748654,-0.01065264
1691752811866411,0.06224924,0.10055647,9.93593693,-0.00426106,-0.18855180,-0.00745685
1691752811868274,0.19153613,0.22984336,9.78270817,0.00106526,-0.18961707,-0.01491370
1691752811870302,0.07182605,0.04788403,9.76355457,-0.00106526,-0.17470337,-0.02343582
1691752811872277,0.11013328,0.14844051,9.72045898,-0.00852212,-0.16831177,-0.04793690
1691752811874250,0.09097967,0.27772740,9.71088219,-0.00852212,-0.16298546,-0.04367584
1691752811876245,0.00000000,0.13407530,9.66299820,-0.01810949,-0.12676647,-0.03621899
1691752811878254,0.11492168,0.32082301,9.61990261,-0.00213053,-0.10972223,-0.03302320
1691752811880320,-0.06703765,0.04788403,9.74918938,-0.00426106,-0.09267800,-0.02982740
1691752811882225,0.17238252,0.13886370,9.49061584,-0.00426106,-0.10013486,-0.02556635
1691752811884196,0.02873042,0.17717093,9.66299820,-0.01171791,-0.11185277,-0.02450108
1691752811886258,0.17238252,0.06703765,9.36132908,-0.00532632,-0.14913702,-0.00745685
1691752811888315,0.28730419,0.20590134,9.33738708,-0.01704423,-0.17576863,-0.00532632
1691752811890264,-0.06703765,0.05267244,9.59596062,-0.01384844,-0.23116238,-0.01704423
1691752811892247,0.34476504,0.10055647,9.22246456,-0.00426106,-0.26951191,-0.00852212
1691752811894260,0.23942018,0.11971009,9.35175228,-0.01278317,-0.27483824,-0.00426106
1691752811896309,0.21068975,0.08140286,9.40921307,-0.01384844,-0.26525083,-0.00532632
1691752811898333,0.38307226,0.17717093,9.05965900,0.00852212,-0.25672874,0.00000000
1691752811900271,-0.01436521,0.13407530,9.44752026,0.01491370,-0.22796659,-0.00319579
1691752811902227,0.14844051,0.18674773,9.20809937,0.00639159,-0.23116238,-0.00319579
1691752811904281,0.13886370,0.14844051,9.17458057,-0.00213053,-0.22796659,0.00745685
1691752811906354,-0.02394202,0.08140286,9.41878986,0.00319579,-0.23329291,0.02237055
1691752811908272,0.17717093,0.05267244,9.13627338,0.00852212,-0.24394555,-0.00532632
1691752811910238,0.00000000,0.07182605,9.40921307,0.01704423,-0.23435818,-0.00958738
1691752811912256,0.09576806,0.07182605,9.38048267,0.03408846,-0.23009712,0.00639159
1691752811914266,0.10055647,0.23463176,9.21288776,0.04474111,-0.20133498,0.00958738
1691752811916323,0.01915361,0.37349546,9.45709705,0.04474111,-0.15659387,0.00000000
1691752811918248,0.04309563,0.17238252,9.35654068,0.05006743,-0.12570120,0.00639159
1691752811920281,-0.11971009,0.14365210,9.44273186,0.02982740,-0.09267800,0.01065264
1691752811922257,-0.05746084,0.00478840,9.45230865,0.00213053,-0.10652644,0.00745685
1691752811924269,-0.12928689,-0.07182605,9.44752026,-0.03089267,-0.11185277,0.00000000
1691752811926256,-0.11971009,-0.02394202,9.38527107,-0.03515373,-0.14913702,-0.00852212
1691752811928282,0.19153613,-0.06703765,9.28471375,-0.04367584,-0.16085494,-0.02982740
1691752811930283,0.02394202,0.00000000,9.40442467,-0.04154531,-0.20346551,-0.02556635
1691752811932226,0.36870706,0.10055647,9.18894577,-0.06072007,-0.21305288,-0.00426106
1691752811934246,0.16759412,0.08140286,9.28471375,-0.07563377,-0.22264026,0.00319579
1691752811936264,0.16759412,0.22026655,9.29907894,-0.07776430,-0.23542345,-0.00319579
1691752811938286,0.41659111,0.31124622,9.05008221,-0.05219796,-0.23542345,0.01491370
1691752811940255,0.00478840,0.28730419,9.31344414,-0.03089267,-0.19494340,0.01491370
1691752811942254,0.24899697,0.33997664,9.06444740,0.00000000,-0.15126754,0.02130529
1691752811944246,0.07182605,0.23463176,9.12190819,0.02556635,-0.13315806,0.01704423
1691752811946246,-0.25378537,0.24420857,9.34696388,0.07137272,-0.06924219,0.02343582
1691752811948286,-0.04309563,0.18195933,8.94473743,0.11291803,-0.01704423,0.00213053
1691752811950462,-0.23463176,0.26336220,9.34217548,0.10972223,-0.00639159,0.01065264
1691752811952240,0.01436521,0.21547815,9.14585018,0.09054748,-0.00852212,0.02130529
1691752811954250,-0.00478840,0.26336220,9.06444740,0.07776430,0.00319579,0.01917476
1691752811956371,-0.21547815,0.23942018,9.45709705,0.06924219,0.00000000,0.01278317
1691752811958248,0.05746084,0.11492168,9.26077175,0.04474111,-0.01917476,0.01810949
1691752811960249,0.04309563,0.23942018,9.31823349,0.01704423,-0.02663161,0.03515373
1691752811962221,0.00478840,-0.01915361,9.54328823,0.00532632,-0.03621899,0.02024002
1691752811964307,0.25857377,0.03830723,9.30865574,-0.01171791,-0.03302320,0.04154531
1691752811966276,0.09576806,0.09576806,9.54328823,-0.01491370,-0.03515373,0.03621899
1691752811968325,0.13886370,-0.02394202,9.60074902,-0.00532632,-0.03089267,0.03728426
1691752811970280,0.07182605,0.23463176,9.53371143,0.01171791,-0.03408846,0.02663161
1691752811972350,0.08140286,0.24420857,9.73961258,0.00000000,-0.00426106,0.01810949
1691752811974291,0.02394202,0.08619126,9.82101536,-0.00639159,0.01704423,0.01810949
1691752811976253,-0.07182605,0.00000000,9.91678333,-0.02130529,0.04367584,0.00639159
1691752811978273,-0.03830723,-0.11492168,9.97424412,-0.04261058,0.07989483,0.00319579
1691752811980263,-0.12928689,0.07182605,10.10831928,-0.05326322,0.09161274,-0.00852212
1691752811982254,-0.00957681,0.08140286,10.09874249,-0.05326322,0.09480853,-0.00426106
1691752811984293,0.08140286,0.03830723,10.12268448,-0.02450108,0.11504856,-0.02450108
1691752811986397,-0.04788403,0.29209262,10.24239445,-0.00639159,0.11504856,-0.01065264
1691752811988267,0.14844051,0.08619126,10.06522369,0.01704423,0.10226539,-0.00106526
1691752811990467,-0.02394202,0.14365210,10.16578007,0.02663161,0.10120012,0.00639159
1691752811992231,0.23463176,0.29209262,9.96466732,0.07563377,0.08522116,0.02024002
1691752811994237,0.21068975,0.11492168,10.00776291,0.07243798,0.08735169,0.02130529
1691752811996247,-0.07661445,0.17238252,10.22324085,0.06604639,0.09693906,-0.00532632
1691752811998288,0.20590134,0.18674773,9.92636013,0.06604639,0.08628642,0.00213053
1691752812000294,0.15322891,0.31603462,10.16099167,0.06498113,0.09693906,-0.00426106
1691752812002235,0.04309563,0.28730419,10.20887566,0.06817693,0.12357067,0.00000000
1691752812004313,0.25857377,0.27293900,9.94072533,0.09693906,0.13528858,0.01810949
1691752812006293,-0.09576806,0.18674773,10.27112484,0.09800433,0.14913702,0.02343582
1691752812008281,0.06224924,0.11971009,9.98382092,0.09693906,0.16618125,0.01810949
1691752812010295,0.09097967,0.14365210,10.05085850,0.09800433,0.15339808,0.04048005
1691752812012289,-0.08140286,0.07182605,10.23760605,0.08841695,0.14274544,0.03621899
1691752812014351,0.25378537,0.20590134,9.87368774,0.09693906,0.13528858,0.03089267
1691752812016251,0.04309563,0.21068975,10.15620327,0.11717909,0.10759171,0.01384844
1691752812018296,0.24420857,0.20111294,9.97903252,0.10759171,0.07989483,0.02237055
1691752812020327,0.26815060,0.17717093,9.96945572,0.10652644,0.04474111,0.00532632
1691752812022242,0.05746084,-0.00957681,10.21366405,0.10120012,0.04154531,0.00213053
1691752812024246,0.24420857,0.09097967,9.86411095,0.09267800,0.04900216,-0.00639159
1691752812026289,0.05267244,0.16759412,10.08437729,0.09693906,0.07563377,0.01171791
1691752812028247,0.14365210,0.12449849,10.00776291,0.10865697,0.09267800,0.01597897
1691752812030217,0.15801731,0.20590134,9.97903252,0.10120012,0.14700650,0.01491370
1691752812032254,-0.05267244,0.05267244,10.18972206,0.11291803,0.20453078,0.00319579
1691752812034293,0.06224924,0.12928689,9.94551373,0.11185277,0.21944447,0.00532632
1691752812036248,-0.12928689,0.11492168,10.06522369,0.11078750,0.23542345,0.00532632
1691752812038244,-0.02873042,0.09097967,10.06522369,0.11504856,0.24714135,-0.00745685
1691752812040360,0.00957681,0.33997664,9.95509052,0.12144014,0.25885925,-0.00532632
1691752812042304,-0.00478840,0.22505496,9.91199493,0.15446334,0.25459820,-0.00639159
1691752812044255,0.10534488,0.29688102,9.83059216,0.18109496,0.27590349,-0.00532632
1691752812046253,-0.08619126,0.24899697,9.92157173,0.18855180,0.29294771,-0.00426106
1691752812048307,0.03830723,0.06703765,9.90720654,0.18535601,0.29827404,0.00426106
1691752812050280,-0.11971009,0.18195933,10.06043530,0.19387813,0.29933929,0.01491370
1691752812052277,0.00478840,0.02873042,10.01733971,0.18961707,0.29720879,0.02024002
1691752812054272,0.24899697,0.16280572,10.15620327,0.18322548,0.30360037,0.02876214
1691752812056351,-0.01915361,0.09576806,10.33337498,0.17896442,0.29827404,0.01810949
1691752812058304,0.35434186,0.14365210,10.10831928,0.15020229,0.28442562,0.02556635
1691752812060251,-0.00478840,0.13886370,10.38604736,0.12037488,0.25566345,0.01810949
1691752812062228,0.09097967,-0.14365210,10.23760605,0.07882957,0.22690132,0.02663161
1691752812064521,0.22505496,-0.09576806,10.15141487,0.05326322,0.21518342,0.01384844
1691752812066360,0.23942018,0.08619126,10.19451046,-0.00639159,0.18109496,0.01917476
1691752812068253,0.39264908,-0.03351882,10.04607010,-0.00639159,0.18535601,0.01278317
1691752812070263,0.12449849,0.16280572,10.26154804,0.01917476,0.18961707,0.02769688
1691752812072249,0.19153613,0.15801731,10.13704967,0.05645901,0.22477080,0.00426106
1691752812074284,0.29209262,0.21068975,10.06043530,0.07669904,0.19707392,0.00426106
1691752812076263,0.01436521,0.16759412,10.32858658,0.06285060,0.20879182,0.00106526
1691752812078264,0.15801731,-0.05746084,10.07958889,0.05858954,0.19813919,0.00639159
1691752812080273,-0.02394202,0.20111294,10.30464458,0.05645901,0.19174761,0.00213053
1691752812082256,0.08619126,0.05746084,10.29027843,0.05326322,0.16298546,0.00852212
1691752812084242,0.25857377,0.05267244,10.16578007,0.04793690,0.15233281,0.00426106
1691752812086255,0.15322891,0.21547815,10.37168217,0.01917476,0.13954964,-0.01810949
1691752812088311,0.27772740,0.04788403,10.20408726,0.01065264,0.14061491,-0.02769688
1691752812090316,0.22505496,0.24420857,10.24718285,0.00745685,0.10652644,-0.01917476
1691752812092253,0.13407530,-0.01436521,10.24239445,0.02237055,0.10120012,-0.01597897
1691752812094278,0.23463176,0.02873042,10.08437729,0.03302320,0.09906960,-0.02663161
1691752812096270,0.16759412,0.22505496,10.22324085,0.03834952,0.09374327,-0.01704423
1691752812098316,0.16759412,-0.10055647,10.18972206,0.03728426,0.08202536,-0.01810949
1691752812100274,0.29209262,0.24420857,10.16099167,0.02237055,0.07669904,-0.01065264
1691752812102271,0.12449849,0.09097967,10.27112484,0.01065264,0.05219796,0.00000000
1691752812104254,0.22505496,0.09576806,10.18014526,-0.01810949,0.04580637,-0.00106526
1691752812106322,0.27772740,0.22984336,10.24239445,-0.02982740,0.04687164,-0.01597897
1691752812108401,0.08140286,-0.13407530,10.33816338,-0.03408846,0.03408846,-0.00319579
1691752812110263,0.17717093,0.21068975,10.16578007,-0.02343582,0.02982740,-0.00532632
1691752812112227,-0.01436521,-0.01915361,10.19929886,-0.01917476,0.04367584,-0.01171791
1691752812114281,0.15322891,0.09576806,10.09874249,-0.02024002,0.05006743,-0.01065264
1691752812116295,0.20590134,0.20111294,10.03649330,-0.01278317,0.07350325,-0.01491370
1691752812118282,0.00000000,-0.02394202,10.16099167,-0.00639159,0.09267800,-0.02130529
1691752812120272,0.11013328,0.36870706,9.90241814,0.01278317,0.10865697,-0.02982740
1691752812122256,0.01915361,0.13407530,9.92636013,0.02237055,0.10972223,-0.02663161
1691752812124354,0.00000000,0.29688102,10.04128170,0.02556635,0.11717909,-0.02663161
1691752812126266,0.06703765,0.19153613,9.89284134,0.03302320,0.10759171,-0.02024002
1691752812128371,-0.04309563,-0.04788403,9.98382092,0.03089267,0.08415589,-0.02556635
1691752812130281,0.09576806,0.35434186,9.89762974,0.01704423,0.03089267,-0.00106526
1691752812132259,0.13886370,-0.00957681,9.88805294,0.00852212,0.01384844,-0.00426106
1691752812134264,0.22984336,0.23463176,9.99339771,0.01917476,0.00532632,0.00000000
1691752812136303,0.23942018,0.11971009,9.89284134,0.00213053,0.00426106,-0.02769688
1691752812138253,0.16280572,0.00000000,9.86411095,-0.01597897,-0.00958738,-0.02556635
1691752812140341,0.19153613,0.33039984,9.93593693,-0.02663161,-0.00106526,-0.03515373
1691752812142244,0.12449849,-0.31124622,9.86889935,-0.04580637,-0.00106526,-0.03195793
1691752812144297,0.21068975,0.25857377,9.84974575,-0.06391586,-0.00532632,-0.03941479
1691752812146255,0.05267244,-0.06703765,9.96466732,-0.07669904,-0.00852212,-0.02982740
1691752812148359,0.09097967,-0.07182605,9.84495735,-0.07669904,-0.00639159,-0.01810949
1691752812150334,0.10055647,0.47405192,9.87368774,-0.07243798,-0.00426106,-0.02982740
1691752812152243,-0.07182605,-0.25857377,9.91199493,-0.05326322,0.00958738,-0.02130529
1691752812154284,0.21068975,0.38307226,9.66778660,-0.05645901,0.02450108,-0.01491370
1691752812156269,-0.00478840,0.09097967,9.79707336,-0.02982740,0.03728426,-0.01171791
1691752812158304,0.01436521,0.01915361,9.71567059,-0.00532632,0.03515373,-0.01491370
1691752812160260,0.25857377,0.56981999,9.59117222,-0.00426106,0.03621899,0.00319579
1691752812162230,-0.02873042,0.02394202,9.80665016,0.01065264,0.03621899,0.00745685
1691752812164244,0.23463176,0.35913026,9.57680702,0.02130529,0.02024002,0.01491370
1691752812166375,0.06224924,0.16280572,9.79228497,-0.02130529,-0.00745685,0.00426106
1691752812168343,-0.02394202,0.00000000,9.87847614,-0.02982740,-0.03302320,0.01597897
1691752812170252,0.28251579,0.23463176,9.68215179,-0.01171791,-0.05006743,0.01491370
1691752812172251,-0.00478840,-0.13407530,9.95987892,-0.04261058,-0.08735169,0.00106526
1691752812174393,0.29688102,0.16759412,9.72524738,-0.07350325,-0.10546118,-0.00958738
1691752812176273,0.26336220,0.02394202,9.86411095,-0.07456851,-0.12357067,-0.00958738
1691752812178254,0.22026655,-0.07661445,9.96945572,-0.08735169,-0.12889700,-0.01810949
1691752812180262,0.31124622,0.23463176,9.71088219,-0.11078750,-0.11717909,-0.02237055
1691752812182287,0.00957681,-0.04309563,9.84974575,-0.10120012,-0.08415589,0.00213053
1691752812184274,0.03830723,0.23942018,9.71088219,-0.08841695,-0.06498113,0.00213053
1691752812186281,-0.02394202,0.04788403,9.71567059,-0.09374327,-0.03834952,-0.01597897
1691752812188258,-0.09576806,-0.04788403,9.84974575,-0.08415589,-0.02769688,-0.01597897
1691752812190342,0.05746084,0.08140286,9.77313137,-0.06817693,-0.03195793,-0.01384844
1691752812192260,-0.11013328,0.00957681,9.77313137,-0.05326322,-0.02556635,-0.02450108
1691752812194295,0.06703765,0.37349546,9.70130539,-0.04261058,-0.02130529,-0.03621899
1691752812196257,0.11492168,0.21068975,9.78270817,-0.03621899,-0.03195793,-0.03089267
1691752812198261,0.15801731,0.24899697,9.74440098,-0.03941479,-0.03195793,-0.01810949
1691752812200343,0.18674773,0.30645782,9.77791977,-0.04261058,-0.02556635,-0.02024002
1691752812202240,-0.00957681,-0.01915361,9.84495735,-0.03728426,-0.04154531,-0.01065264
1691752812204255,0.17238252,0.30645782,9.74440098,-0.04367584,-0.05113269,0.00213053
1691752812206318,-0.05267244,-0.09097967,10.00297451,-0.06285060,-0.05539375,0.00106526
1691752812208256,0.31603462,0.35434186,9.86889935,-0.10865697,-0.08202536,0.00106526
1691752812210277,0.22026655,0.04788403,9.99818611,-0.13635385,-0.08735169,0.00532632
1691752812212233,-0.01436521,-0.17238252,10.13226128,-0.13741912,-0.10226539,0.00532632
1691752812214314,0.38307226,0.37828386,9.81622696,-0.11824435,-0.09906960,0.00426106
1691752812216290,0.08140286,0.17238252,10.04128170,-0.09161274,-0.10013486,0.00958738
1691752812218294,0.15322891,0.15322891,9.85453415,-0.09480853,-0.08522116,0.00426106
1691752812220257,0.15801731,0.24420857,9.79228497,-0.08202536,-0.09054748,-0.00745685
1691752812222255,-0.14365210,-0.01436521,9.97424412,-0.06072007,-0.06285060,-0.01384844
1691752812224320,0.13886370,0.30645782,9.62469101,-0.03941479,-0.04580637,-0.02024002
1691752812226206,-0.00957681,0.13886370,9.90720654,-0.03834952,-0.03195793,-0.02556635
1691752812228260,0.01436521,0.01915361,9.83538055,-0.04900216,-0.01278317,-0.00213053
1691752812230255,0.13407530,0.25857377,9.69172859,-0.06285060,0.00213053,0.00426106
1691752812232323,-0.15801731,0.09097967,9.99818611,-0.06924219,0.01278317,-0.01065264
1691752812234277,0.13407530,0.30166942,9.72524738,-0.06924219,0.00745685,-0.00852212
1691752812236273,-0.02873042,0.15322891,9.86411095,-0.06391586,0.01278317,-0.01917476
1691752812238251,0.05267244,-0.01436521,9.88805294,-0.06711166,0.00532632,-0.01810949
1691752812240320,0.16759412,0.23463176,9.71567059,-0.07563377,-0.01278317,-0.02876214
1691752812242313,-0.07182605,0.06703765,9.95509052,-0.08202536,-0.02556635,-0.01704423
1691752812244302,0.18195933,0.19153613,9.82580376,-0.08415589,-0.02130529,-0.00958738
1691752812246265,0.08619126,0.12928689,9.90720654,-0.06391586,-0.04048005,-0.00426106
1691752812248291,0.13407530,0.08140286,9.93114853,-0.04367584,-0.06498113,-0.00639159
1691752812250320,0.15801731,0.23942018,9.91199493,-0.03408846,-0.06924219,-0.01065264
1691752812252264,0.06224924,0.16759412,10.00297451,-0.02237055,-0.06711166,-0.01065264
1691752812254275,0.25378537,0.26336220,9.87368774,-0.03302320,-0.08309063,-0.00745685
1691752812256337,0.06703765,0.14844051,9.91678333,-0.04793690,-0.09161274,-0.00213053
1691752812258326,0.15801731,0.09576806,9.84016895,-0.05113269,-0.09054748,-0.01491370
1691752812260299,0.11492168,0.14365210,9.93114853,-0.05113269,-0.07669904,-0.00106526
1691752812262258,0.04309563,0.11492168,9.93114853,-0.05858954,-0.06178534,-0.00106526
1691752812264288,0.18195933,0.15801731,9.88805294,-0.05326322,-0.06604639,0.01704423
1691752812266338,-0.08619126,0.02394202,10.11310768,-0.04687164,-0.05326322,0.00213053
1691752812268341,0.16280572,0.12928689,9.87847614,-0.04261058,-0.04900216,-0.00426106
1691752812270368,0.10055647,0.16280572,10.08916569,-0.05006743,-0.04261058,-0.01065264
1691752812272264,0.00478840,0.07182605,10.08916569,-0.06178534,-0.04580637,-0.00426106
1691752812274325,0.21547815,0.23463176,9.91678333,-0.07030746,-0.03941479,-0.01171791
1691752812276275,-0.12928689,0.04788403,10.18493366,-0.07350325,-0.04474111,-0.00958738
1691752812278316,0.08619126,0.12449849,9.88326454,-0.05858954,-0.03941479,-0.01065264
1691752812280259,0.04309563,0.11971009,10.06043530,-0.04154531,-0.04048005,-0.00426106
1691752812282249,0.01915361,0.02873042,10.11789608,-0.02130529,-0.04048005,-0.00532632
1691752812284252,0.25378537,0.25378537,9.82101536,-0.02024002,-0.05006743,0.00319579
1691752812286268,-0.01915361,0.14365210,10.14183807,-0.01704423,-0.06072007,-0.00745685
1691752812288255,0.19153613,0.20111294,9.87368774,-0.01491370,-0.05752428,-0.01065264
1691752812290299,0.14365210,0.22505496,9.96466732,-0.01917476,-0.05219796,-0.00958738
1691752812292324,-0.01915361,0.01436521,10.09395409,-0.05219796,-0.06178534,0.00106526
1691752812294270,0.11013328,0.17717093,9.80665016,-0.07456851,-0.05752428,-0.00426106
1691752812296275,-0.10055647,0.06224924,10.10353088,-0.07243798,-0.04367584,-0.00532632
1691752812298327,0.08619126,0.06703765,9.95987892,-0.05113269,-0.05113269,-0.00745685
1691752812300353,0.09576806,0.21068975,9.95509052,-0.03195793,-0.05539375,0.00319579
1691752812302255,0.05267244,0.10055647,10.10831928,-0.02769688,-0.04687164,-0.00958738
1691752812304284,0.19632454,0.26815060,9.89284134,-0.04261058,-0.05006743,-0.00639159
1691752812306290,0.04788403,0.30645782,10.03649330,-0.06178534,-0.05645901,0.00426106
1691752812308334,0.11013328,0.09576806,10.01733971,-0.08096009,-0.05432849,0.00000000
1691752812310290,0.05267244,0.12928689,9.96466732,-0.08735169,-0.05965481,-0.00532632
1691752812312237,0.00957681,0.03830723,10.00297451,-0.08096009,-0.06604639,-0.00319579
1691752812314308,0.05267244,0.08619126,9.93114853,-0.06072007,-0.06498113,-0.00106526
1691752812316334,0.07661445,0.17238252,9.90241814,-0.04367584,-0.06498113,-0.00639159
1691752812318292,0.23463176,0.06703765,9.87368774,-0.04474111,-0.05965481,0.00426106
1691752812320299,0.07661445,0.19632454,9.95509052,-0.05326322,-0.05752428,-0.00745685
1691752812322233,0.16280572,0.23463176,9.87847614,-0.04261058,-0.04793690,-0.00426106
1691752812324314,0.10534488,0.17238252,9.94551373,-0.02663161,-0.04154531,-0.00958738
1691752812326298,-0.01436521,0.24899697,9.94072533,-0.02130529,-0.03834952,-0.00426106
1691752812328353,0.12449849,0.09097967,9.81143856,-0.01917476,-0.04154531,-0.00532632
1691752812330258,-0.10055647,0.01436521,9.99818611,-0.00745685,-0.03408846,0.01171791
1691752812332249,0.08140286,0.12449849,9.75876617,0.00213053,-0.03195793,0.01065264
1691752812334278,0.16280572,0.19153613,9.81622696,-0.00745685,-0.03089267,0.01171791
1691752812336335,0.03351882,0.27772740,9.90241814,0.00213053,-0.02237055,0.00106526
1691752812338259,0.29209262,0.23942018,9.63426781,0.01597897,-0.01065264,-0.00958738
1691752812340386,-0.02394202,0.17717093,9.96945572,0.02343582,-0.00852212,-0.00958738
1691752812342287,0.03351882,0.15801731,9.79228497,0.01810949,-0.00106526,0.00213053
1691752812344288,0.11013328,0.07182605,9.72524738,0.00958738,0.00426106,0.00958738
1691752812346262,-0.10055647,0.07661445,9.95987892,0.00213053,0.00319579,0.00426106
1691752812348287,0.16280572,0.10534488,9.68215179,-0.01278317,0.00000000,-0.00426106
1691752812350383,-0.05267244,0.01915361,10.01733971,-0.01597897,0.00106526,-0.00958738
1691752812352246,0.02394202,0.07661445,9.89762974,-0.02237055,-0.00639159,-0.01704423
1691752812354276,0.21068975,0.19632454,9.74440098,-0.02024002,-0.00958738,-0.01065264
1691752812356411,0.06703765,0.13407530,10.07480049,-0.01171791,-0.01065264,-0.00958738
1691752812358346,0.24420857,0.14365210,9.78749657,0.00213053,-0.01278317,-0.02556635
1691752812360325,0.07182605,0.16280572,9.91678333,0.00213053,-0.01597897,-0.02876214
1691752812362265,0.03351882,0.07182605,9.97903252,0.00852212,-0.01491370,-0.01917476
1691752812364249,0.15801731,0.18674773,9.76834297,0.02663161,-0.01278317,-0.01917476
1691752812366316,0.08140286,0.16280572,9.95030212,0.02237055,0.00000000,-0.01065264
1691752812368334,0.11492168,0.08140286,9.80665016,0.03089267,0.01065264,0.00319579
1691752812370335,-0.02873042,0.21068975,9.82580376,0.03515373,0.02982740,0.00532632
1691752812372244,-0.02394202,0.11492168,9.84974575,0.05219796,0.04048005,-0.00426106
1691752812374265,0.04309563,0.21547815,9.74918938,0.05006743,0.04261058,0.00213053
1691752812376299,0.07661445,0.21547815,9.79228497,0.05965481,0.04048005,0.00000000
1691752812378363,0.16759412,0.11013328,9.74918938,0.05539375,0.04261058,0.00000000
1691752812380265,-0.01436521,0.25378537,9.74440098,0.05432849,0.02876214,-0.00745685
1691752812382315,0.10055647,0.12928689,9.68694019,0.02982740,0.01384844,0.00639159
1691752812384299,0.00478840,0.12928689,9.78270817,0.02663161,0.00106526,-0.00639159
1691752812386324,0.07661445,0.11013328,9.73003578,0.03728426,-0.00106526,-0.00532632
1691752812388279,0.16759412,0.02873042,9.66778660,0.03408846,0.00319579,-0.00106526
1691752812390371,0.07661445,0.21547815,9.71567059,0.02343582,-0.00106526,0.00852212
1691752812392299,0.16759412,0.11013328,9.55765343,0.01810949,-0.00106526,-0.00106526
1691752812394276,0.13407530,-0.01915361,9.55765343,0.03195793,0.00213053,-0.00639159
1691752812396264,-0.18195933,0.12449849,9.82580376,0.05219796,0.01917476,-0.00852212
1691752812398256,0.10534488,0.12928689,9.54807663,0.05752428,0.01384844,0.00319579
1691752812400322,0.03830723,0.06224924,9.69172859,0.04261058,0.02343582,0.00213053
1691752812402252,0.02394202,0.11971009,9.75397778,0.03089267,0.03408846,-0.00745685
1691752812404384,0.29209262,0.00957681,9.59117222,0.02237055,0.05113269,-0.01171791
1691752812406269,-0.05267244,0.02873042,9.86889935,0.00000000,0.04048005,-0.01810949
1691752812408285,0.15322891,0.17238252,9.61032581,-0.00319579,0.04154531,-0.02024002
1691752812410322,-0.08619126,-0.02394202,9.86411095,0.00319579,0.04261058,-0.01491370
1691752812412240,0.00000000,0.11492168,9.87368774,0.00000000,0.03941479,-0.00532632
1691752812414306,0.22505496,0.12928689,9.64384460,-0.00745685,0.02876214,0.00319579
1691752812416262,-0.09576806,0.06224924,9.83059216,-0.00639159,0.03195793,0.00000000
1691752812418352,0.03830723,-0.01915361,9.69651699,0.02556635,0.03515373,0.00000000
1691752812420282,0.00957681,0.26336220,9.83059216,0.04474111,0.02450108,-0.00532632
1691752812422218,0.06224924,0.29688102,9.90720654,0.04154531,0.02450108,0.00745685
1691752812424317,0.03830723,0.02873042,9.73003578,0.02450108,0.01917476,0.00426106
1691752812426319,0.08619126,0.24899697,9.84974575,0.01384844,0.01704423,0.00639159
1691752812428282,0.13886370,-0.05746084,9.70130539,0.01917476,0.02450108,0.00213053
1691752812430253,0.10055647,0.19153613,9.69172859,0.03834952,0.02769688,0.01171791
1691752812432255,0.14365210,0.23463176,9.77313137,0.07563377,0.03089267,0.00213053
1691752812434327,0.11013328,0.01436521,9.70609379,0.08415589,0.02663161,0.00532632
1691752812436306,0.00478840,0.14365210,9.71567059,0.08202536,0.02876214,0.00958738
1691752812438257,0.08619126,0.06703765,9.72045898,0.08202536,0.02450108,0.00852212
1691752812440274,0.01436521,0.13407530,9.76355457,0.05539375,0.02982740,0.01384844
1691752812442288,0.19153613,0.25857377,9.72524738,0.04154531,0.01491370,0.01597897
1691752812444286,0.19153613,0.02873042,9.72045898,0.02450108,0.00745685,0.00852212
1691752812446324,0.02873042,0.15801731,9.80186176,0.02769688,0.01810949,0.00106526
1691752812448412,0.19153613,0.19153613,9.73003578,0.02769688,0.02982740,0.01917476
1691752812450305,0.03351882,0.22026655,9.77791977,0.03195793,0.02982740,0.02024002
1691752812452292,0.05746084,0.21068975,9.65820980,0.03195793,0.03728426,0.01278317
1691752812454268,0.05746084,-0.03830723,9.62947941,0.03408846,0.03408846,0.00426106
1691752812456260,-0.10534488,0.11971009,9.82101536,0.04474111,0.03728426,0.01597897
1691752812458299,0.20111294,0.18674773,9.63905621,0.06072007,0.03941479,0.01704423
1691752812460317,0.02394202,0.18674773,9.85453415,0.07137272,0.03515373,0.01704423
1691752812462226,0.14365210,0.36391866,9.79228497,0.06391586,0.02450108,0.02130529
1691752812464313,0.22026655,0.09097967,9.70609379,0.05006743,0.02024002,0.01704423
1691752812466345,0.13407530,0.27772740,9.93114853,0.02769688,0.00532632,0.01278317
1691752812468349,0.21068975,0.11971009,9.78749657,0.01171791,0.01278317,0.01065264
1691752812470302,0.08140286,-0.05746084,9.91199493,-0.00426106,0.00745685,0.00958738
1691752812472242,0.08140286,0.12449849,9.97903252,-0.02982740,-0.00213053,-0.00213053
1691752812474333,0.17238252,-0.09576806,9.84016895,-0.03941479,0.00852212,0.00106526
1691752812476368,0.01436521,0.09576806,10.16578007,-0.04474111,0.00745685,-0.00426106
1691752812478354,0.24420857,0.05746084,10.07001209,-0.05539375,-0.00426106,-0.00213053
1691752812480318,0.11492168,-0.05267244,10.09874249,-0.06498113,-0.01065264,0.00000000
1691752812482261,0.08140286,0.29688102,10.22324085,-0.06498113,0.00000000,0.00426106
1691752812484449,0.15322891,-0.06224924,10.05085850,-0.04793690,-0.01384844,0.00745685
1691752812486306,0.12449849,0.35434186,10.17056847,-0.05539375,-0.00213053,0.00639159
1691752812488338,0.10534488,0.04788403,10.16578007,-0.03728426,0.00213053,0.00639159
1691752812490262,0.04309563,-0.08140286,10.10831928,-0.03515373,0.01171791,0.00000000
1691752812492283,0.05746084,0.45968673,10.18493366,-0.02450108,0.02024002,-0.00213053
1691752812494308,-0.00957681,-0.19632454,10.18014526,-0.02556635,0.01704423,-0.00532632
1691752812496294,0.16280572,0.29688102,10.18014526,-0.01597897,0.00639159,0.00213053
1691752812498268,0.09576806,0.14365210,10.20887566,-0.01917476,0.00958738,-0.00745685
1691752812500280,0.06224924,-0.00478840,10.12747288,-0.02343582,0.00106526,-0.00426106
1691752812502363,0.19632454,0.58418524,10.09874249,-0.01917476,-0.00532632,-0.01171791
1691752812504278,-0.00478840,-0.07661445,10.18972206,-0.01278317,-0.00426106,-0.00426106
1691752812506272,0.20111294,0.22984336,10.09395409,-0.00106526,-0.01278317,-0.01171791
1691752812508297,0.02873042,0.12449849,10.19451046,-0.00319579,-0.01171791,-0.00319579
1691752812510341,0.06224924,-0.03351882,10.18493366,0.00106526,-0.00639159,-0.00852212
1691752812512291,0.26815060,0.41180268,10.09395409,-0.00958738,-0.00319579,0.00000000
1691752812514301,0.02873042,-0.06224924,10.26633644,-0.02130529,-0.00213053,-0.01065264
1691752812516305,0.22505496,0.29688102,10.11789608,-0.03621899,-0.00639159,-0.00106526
1691752812518364,-0.01915361,0.07661445,10.23281765,-0.05113269,-0.00426106,-0.00639159
1691752812520421,0.01436521,0.03830723,10.25197124,-0.05113269,0.00106526,-0.00532632
1691752812522248,0.23942018,0.23463176,10.12747288,-0.04154531,0.00426106,-0.01065264
1691752812524376,-0.04309563,-0.22984336,10.35252857,-0.03834952,0.00426106,-0.00532632
1691752812526334,0.18195933,0.31124622,10.15620327,-0.03408846,0.00319579,-0.00532632
1691752812528235,0.06224924,0.13407530,10.15620327,-0.01597897,0.00532632,0.00213053
1691752812530276,0.09576806,0.35913026,9.97424412,0.00639159,0.01597897,0.00106526
1691752812532243,0.21068975,0.34955344,9.84016895,0.02024002,0.01704423,-0.00106526
1691752812534298,-0.07182605,0.00957681,9.98860931,0.03515373,0.02769688,-0.00213053
1691752812536303,0.01436521,0.42616791,9.78270817,0.07030746,0.02769688,0.00426106
1691752812538328,-0.04309563,0.08619126,9.68694019,0.09054748,0.03408846,0.00639159
1691752812540288,0.00000000,0.23463176,9.77791977,0.09693906,0.02769688,0.00106526
1691752812542374,-0.03351882,0.68474168,9.59117222,0.07989483,0.04687164,0.00852212
1691752812544328,0.01915361,1.15400517,9.61990261,0.07989483,0.04474111,-0.00426106
1691752812546287,0.12928689,1.05823720,9.61990261,0.06072007,0.03728426,-0.00319579
1691752812548214,-0.00478840,0.67995328,9.65342140,0.05006743,0.04154531,0.00213053
1691752812550300,0.19153613,0.70389527,9.70130539,0.05858954,0.05539375,0.00106526
1691752812552282,0.09097967,0.35913026,9.72524738,0.03834952,0.05645901,-0.00319579
1691752812554276,0.27293900,0.66079968,9.63426781,0.01810949,0.04474111,0.00745685
1691752812556264,0.21068975,0.42137951,9.73003578,0.01278317,0.05006743,0.01171791
1691752812558281,0.06224924,0.06224924,9.78270817,0.00532632,0.04793690,0.00106526
1691752812560345,0.23463176,0.67995328,9.70609379,-0.01278317,0.05965481,-0.00639159
1691752812562247,-0.06703765,-0.06224924,9.91199493,-0.00639159,0.05006743,0.00745685
1691752812564285,0.14365210,0.20590134,9.74918938,-0.00319579,0.04367584,-0.01065264
1691752812566269,0.15322891,0.17238252,9.83059216,-0.01810949,0.03941479,-0.03195793
1691752812568341,-0.05267244,-0.24420857,9.95987892,-0.00106526,0.01704423,-0.02556635
1691752812570328,0.27293900,0.41659111,9.75876617,0.00106526,0.00639159,-0.01491370
1691752812572277,0.09097967,0.03351882,9.94551373,0.00958738,-0.01491370,-0.02343582
1691752812574269,0.30166942,0.27772740,9.77313137,0.01384844,-0.01917476,-0.01384844
1691752812576296,0.28730419,0.27772740,9.79228497,0.01384844,-0.03515373,0.00745685
1691752812578345,-0.01436521,-0.07661445,9.96466732,0.00426106,-0.02876214,-0.00106526
1691752812580288,0.20111294,0.35434186,9.69172859,0.01917476,-0.02237055,-0.01597897
1691752812582253,0.02394202,0.00957681,9.98382092,0.02876214,-0.02450108,0.00745685
1691752812584306,0.14365210,0.09576806,9.88805294,0.03515373,-0.02237055,0.00213053
1691752812586498,0.21547815,0.11971009,9.81622696,0.01597897,-0.00958738,0.00000000
1691752812588298,0.00478840,-0.07182605,10.04128170,-0.00852212,-0.01704423,0.00000000
1691752812590284,0.23463176,0.33518824,9.85932255,-0.02130529,-0.01704423,0.01171791
1691752812592249,0.03830723,-0.00478840,10.02212811,-0.03089267,-0.00532632,0.00319579
1691752812594291,0.09097967,0.17717093,10.01733971,-0.04154531,-0.00639159,0.00532632
1691752812596352,0.11013328,0.09576806,9.92636013,-0.05752428,-0.00426106,-0.00213053
1691752812598263,-0.08619126,-0.11013328,10.12268448,-0.05432849,0.00000000,0.00426106
1691752812600334,0.18195933,0.20590134,10.04607010,-0.04793690,-0.00213053,-0.00639159
1691752812602320,0.05746084,-0.05746084,10.12268448,-0.04367584,-0.01065264,-0.00426106
1691752812604342,0.13886370,0.28730419,10.17535686,-0.05113269,-0.00319579,-0.00852212
1691752812606278,0.00000000,-0.13407530,10.18493366,-0.05858954,-0.01597897,-0.00106526
1691752812608291,0.11971009,0.06224924,10.21845245,-0.05965481,-0.01917476,-0.00532632
1691752812610389,0.15322891,0.09576806,10.23760605,-0.06604639,-0.03089267,0.00639159
1691752812612247,0.20111294,0.14365210,10.20408726,-0.05965481,-0.04048005,-0.00852212
1691752812614299,0.21068975,0.34476504,10.18493366,-0.05006743,-0.03728426,0.00000000
1691752812616260,0.11013328,0.04309563,10.17535686,-0.03941479,-0.04261058,-0.01491370
1691752812618319,0.22505496,0.43095630,10.04607010,-0.02769688,-0.05645901,0.00106526
1691752812620313,0.24899697,0.35434186,10.16578007,-0.03515373,-0.05219796,-0.00319579
1691752812622273,0.18674773,-0.02394202,10.00297451,-0.04474111,-0.02982740,0.00319579
1691752812624298,0.27293900,0.42616791,9.84974575,-0.04261058,-0.03195793,-0.00532632
1691752812626257,0.05267244,0.03351882,9.94072533,-0.02556635,-0.04261058,0.00532632
1691752812628333,0.24420857,0.45010993,9.25119495,-0.05113269,-0.03621899,0.01384844
1691752812630290,0.16759412,0.21068975,9.18415737,-0.04154531,-0.05539375,0.02237055
1691752812632243,0.21068975,0.16280572,8.79150867,-0.03195793,-0.07563377,0.01597897
1691752812634290,0.11971009,0.33039984,8.49941635,-0.03621899,-0.09054748,0.02450108
1691752812636345,0.08140286,0.10055647,8.38928318,-0.01278317,-0.13102752,0.00958738
1691752812638277,0.00478840,0.15322891,8.04930592,-0.00745685,-0.10759171,0.02343582
1691752812640294,0.19632454,0.16759412,7.67581081,0.03834952,-0.15020229,-0.00426106
1691752812642279,-0.05746084,0.17717093,7.79552078,0.02556635,-0.14487596,-0.00213053
1691752812644441,0.09097967,0.26815060,7.31189203,0.01384844,-0.13102752,-0.00639159
1691752812646309,0.02394202,0.06224924,7.20175886,0.02237055,-0.13954964,-0.01704423
1691752812648259,-0.07182605,0.08140286,7.26400805,-0.00213053,-0.11504856,-0.01171791
1691752812650283,0.10534488,0.18674773,6.70855331,0.01065264,-0.16724652,-0.03408846
1691752812652278,0.01436521,0.02394202,6.78516769,-0.01384844,-0.14274544,-0.00852212
1691752812654331,-0.00957681,0.11492168,6.75643730,-0.04048005,-0.11611383,-0.02343582
1691752812656263,0.20590134,0.00478840,6.61757326,-0.01917476,-0.14594123,-0.02556635
1691752812658269,-0.17717093,0.15322891,6.60320807,-0.06498113,-0.11078750,-0.00213053
1691752812660359,0.05746084,-0.04309563,6.62236214,-0.03728426,-0.12037488,-0.00958738
1691752812662225,0.12928689,0.13407530,6.48828650,-0.00958738,-0.11717909,-0.01491370
1691752812664306,0.11013328,0.25378537,6.40209532,-0.00958738,-0.11078750,-0.01384844
1691752812666267,0.07182605,0.10534488,6.50744009,0.00639159,-0.12783173,-0.02024002
1691752812668300,-0.01915361,0.23942018,6.33505774,-0.00106526,-0.11078750,-0.00852212
1691752812670361,0.07661445,0.12449849,6.32069254,0.03408846,-0.10439591,-0.01278317
1691752812672295,-0.00478840,0.27772740,6.57447767,0.04367584,-0.10759171,-0.00532632
1691752812674269,0.12928689,0.02873042,6.53138208,0.03408846,-0.11185277,0.00106526
1691752812676294,-0.12928689,0.34955344,6.46913290,0.02556635,-0.10439591,0.00532632
1691752812678385,0.08140286,0.09097967,6.56490088,0.03089267,-0.09054748,0.00319579
1691752812680313,0.19632454,-0.10055647,6.60799646,0.02237055,-0.11078750,0.00852212
1691752812682250,0.05746084,0.03830723,6.62236214,-0.00745685,-0.10226539,0.00106526
1691752812684311,0.13407530,0.05746084,6.64630413,0.00639159,-0.10333065,-0.00532632
1691752812686336,0.19632454,0.00957681,6.67982292,0.02769688,-0.09800433,0.00852212
1691752812688303,0.07182605,0.18195933,6.65109253,0.03941479,-0.05752428,0.00852212
1691752812690328,-0.05267244,0.21547815,6.60799646,0.04580637,-0.05645901,0.02343582
1691752812692239,0.01915361,0.08140286,6.64630413,0.05645901,-0.02556635,0.01278317
1691752812694378,-0.09097967,0.30166942,6.67503452,0.08628642,0.00745685,0.01171791
1691752812696270,0.03830723,0.27293900,6.64151573,0.08096009,0.00639159,0.01917476
1691752812698315,-0.11971009,0.16759412,6.74686050,0.06391586,0.03195793,0.01384844
1691752812700289,-0.07182605,-0.01915361,6.82347488,0.05645901,0.01917476,0.01384844
1691752812702295,0.00957681,0.07182605,6.88572407,0.06285060,0.02343582,0.00532632
1691752812704337,0.09097967,0.00957681,6.85699368,0.06817693,0.02450108,0.01491370
1691752812706273,-0.08619126,0.25857377,6.97670364,0.07350325,0.00106526,-0.00426106
1691752812708270,0.06703765,0.22984336,6.87135887,0.07030746,0.01917476,-0.00745685
1691752812710319,0.14844051,0.02873042,6.98149204,0.06178534,0.01810949,-0.01171791
1691752812712290,0.00000000,-0.01436521,7.24006605,0.05006743,0.01810949,-0.00319579
1691752812714280,0.04788403,-0.01436521,7.21612406,0.05113269,0.02130529,-0.00426106
1691752812716375,0.06224924,0.22026655,7.07726002,0.06178534,0.04048005,-0.01065264
1691752812718295,-0.05746084,0.13407530,7.37892962,0.06072007,0.04474111,0.00106526
1691752812720396,-0.02873042,0.09097967,7.39329481,0.06711166,0.04154531,0.01597897
1691752812722295,0.02394202,0.21068975,7.25443125,0.08948221,0.04687164,0.01597897
1691752812724260,-0.05746084,0.18195933,7.56567717,0.07456851,0.04580637,0.02769688
1691752812726304,0.11971009,0.10055647,7.53215837,0.06072007,0.03941479,0.03089267
1691752812728313,0.04309563,0.18674773,7.48906279,0.05326322,0.03195793,0.01597897
1691752812730306,-0.02394202,0.07661445,7.71411800,0.04687164,0.04793690,-0.00106526
1691752812732251,0.07182605,0.07661445,7.78115559,0.04900216,0.04474111,0.00639159
1691752812734287,0.09097967,0.07661445,7.84340477,0.04261058,0.02343582,0.00852212
1691752812736319,0.06703765,-0.07661445,8.00142193,0.02876214,0.03302320,0.00000000
1691752812738342,0.09576806,0.06224924,8.03494072,-0.00426106,0.03621899,-0.00532632
1691752812740275,0.03351882,0.09097967,8.15465069,-0.00852212,0.02556635,-0.00958738
1691752812742367,0.04788403,0.02394202,8.19295788,-0.00958738,0.02769688,-0.00745685
1691752812744355,0.06224924,0.22026655,8.25041866,-0.01171791,0.02663161,-0.01171791
1691752812746355,0.05746084,0.15801731,8.38928318,-0.01597897,0.02024002,-0.00958738
1691752812748274,0.21547815,0.05267244,8.29351425,-0.02237055,0.01704423,-0.01278317
1691752812750269,0.14365210,0.08619126,8.45153236,-0.03408846,0.02130529,-0.01491370
1691752812752291,0.16280572,0.09097967,8.47068596,-0.03941479,0.02450108,-0.00852212
1691752812754301,0.25857377,0.16759412,8.39885998,-0.02237055,0.03515373,0.00639159
1691752812756311,0.02394202,0.21068975,8.66701031,-0.00852212,0.04900216,0.02130529
1691752812758304,0.14844051,0.28730419,8.47068596,-0.01065264,0.05858954,0.01171791
1691752812760327,0.09097967,0.45010993,8.48505116,-0.01065264,0.07563377,0.00213053
1691752812762262,-0.10055647,0.24420857,8.75798988,-0.01810949,0.09374327,0.00213053
1691752812764323,0.20111294,0.25378537,8.47547436,0.00213053,0.09480853,-0.00213053
1691752812766272,0.02873042,0.27772740,8.75320148,0.00958738,0.10226539,-0.00745685
1691752812768355,-0.10055647,-0.05746084,8.86812305,0.03195793,0.10333065,-0.01491370
1691752812770360,0.12449849,0.22505496,8.57603073,0.03621899,0.11717909,-0.00639159
1691752812772254,-0.22505496,0.13886370,8.95910263,0.04048005,0.12037488,-0.01597897
1691752812774272,-0.11013328,-0.05267244,8.89206505,0.02769688,0.11185277,-0.00106526
1691752812776286,0.13886370,0.29688102,8.75798988,0.00745685,0.10652644,0.01491370
1691752812778345,-0.08140286,-0.04309563,9.11233139,0.00639159,0.10120012,0.00745685
1691752812780293,0.19153613,0.02394202,8.84896946,-0.01171791,0.11078750,0.00000000
1691752812782294,0.14365210,0.15801731,8.97346783,-0.02343582,0.10333065,0.00106526
1691752812784274,0.02394202,-0.10534488,9.23204136,-0.03834952,0.10013486,0.00426106
1691752812786393,0.19632454,0.29688102,8.98783302,-0.03834952,0.09906960,0.00000000
1691752812788337,0.02394202,-0.12449849,9.24640656,-0.03302320,0.09800433,0.00639159
1691752812790291,0.20111294,0.13886370,9.22246456,-0.03195793,0.10013486,0.00426106
1691752812792250,0.04309563,0.12449849,9.25119495,-0.02237055,0.08415589,0.00639159
1691752812794272,0.10534488,0.05746084,9.34217548,-0.03195793,0.08415589,0.00532632
1691752812796343,0.11492168,0.14365210,9.31823349,-0.00532632,0.07776430,0.00426106
1691752812798276,0.05746084,0.20111294,9.32302189,0.00639159,0.06391586,-0.00532632
1691752812800307,0.14365210,0.00957681,9.38048267,-0.00745685,0.05965481,-0.00745685
1691752812802260,0.04788403,0.13886370,9.44273186,-0.01704423,0.05965481,-0.00426106
1691752812804450,0.11971009,0.07182605,9.42357826,-0.01171791,0.04900216,-0.00106526
1691752812806335,0.07182605,0.18195933,9.54807663,-0.01491370,0.05006743,0.00319579
1691752812808239,0.05746084,0.20590134,9.58159542,-0.01810949,0.05326322,0.00958738
1691752812810311,0.28251579,0.15801731,9.44273186,-0.00958738,0.06498113,0.01171791
1691752812812313,0.13886370,0.19153613,9.59596062,-0.00639159,0.07137272,0.02024002
1691752812814390,0.00000000,0.18674773,9.65820980,-0.01171791,0.07882957,0.01491370
1691752812816295,0.24899697,0.07182605,9.43315506,-0.00426106,0.07989483,0.01065264
1691752812818338,-0.05746084,0.09576806,9.75397778,-0.00745685,0.09480853,0.01384844
1691752812820314,0.12449849,0.11971009,9.55765343,-0.00319579,0.09161274,0.01065264
1691752812822214,0.20111294,0.14365210,9.59117222,-0.00532632,0.07776430,0.00745685
1691752812824312,-0.11013328,0.14844051,9.92157173,0.00852212,0.06924219,0.00852212
1691752812826464,0.29209262,0.20111294,9.58159542,0.01704423,0.06817693,0.01384844
1691752812828336,-0.06703765,0.15801731,10.04128170,0.00319579,0.05219796,-0.00319579
1691752812830279,0.14844051,0.12449849,9.92636013,-0.00213053,0.04793690,-0.00213053
1691752812832280,0.31603462,0.15322891,9.76834297,-0.02130529,0.04474111,-0.01065264
1691752812834262,-0.05267244,0.11971009,10.15141487,-0.03621899,0.04474111,-0.01278317
1691752812836324,0.23463176,0.16280572,9.77313137,-0.05858954,0.05645901,-0.00426106
1691752812838307,0.13886370,0.11971009,9.88805294,-0.05645901,0.05752428,0.00532632
1691752812840331,0.06703765,0.04788403,9.99818611,-0.03941479,0.07989483,0.00213053
1691752812842250,0.21547815,0.16280572,9.73003578,-0.02556635,0.08202536,0.00426106
1691752812844360,-0.08140286,0.18674773,10.11310768,-0.02876214,0.07669904,0.00213053
1691752812846399,0.10534488,0.13886370,9.90241814,-0.03089267,0.07563377,0.01171791
1691752812848275,0.17238252,0.16280572,9.89762974,-0.02556635,0.07882957,0.00532632
1691752812850305,0.16759412,0.11971009,10.09395409,-0.03408846,0.07989483,0.00000000
1691752812852274,0.24899697,0.20590134,9.89762974,-0.04580637,0.07989483,0.00426106
1691752812854419,0.04788403,0.26336220,10.10831928,-0.03408846,0.07563377,-0.00106526
1691752812856320,0.12928689,0.11971009,9.97903252,-0.02876214,0.07669904,-0.00958738
1691752812858328,0.11492168,0.17238252,9.94551373,-0.02663161,0.08415589,-0.00426106
1691752812860265,0.08619126,0.07182605,10.13704967,-0.02237055,0.08735169,-0.00213053
1691752812862220,0.11013328,0.02394202,10.04128170,-0.01491370,0.09587380,-0.00958738
1691752812864290,0.01915361,0.18195933,10.10831928,-0.01917476,0.10013486,-0.00213053
1691752812866354,0.15801731,0.12449849,10.07001209,-0.01491370,0.09054748,0.01171791
1691752812868276,0.15322891,0.16759412,10.12268448,-0.00958738,0.09374327,0.02450108
1691752812870302,0.23942018,0.16280572,10.14662647,-0.01491370,0.08522116,0.01917476
1691752812872295,0.15322891,0.19153613,10.12747288,-0.03195793,0.06178534,0.00319579
1691752812874264,0.06703765,0.28730419,10.17056847,-0.03302320,0.05113269,0.00213053
1691752812876299,0.21068975,0.10534488,10.17535686,-0.01597897,0.05006743,0.00213053
1691752812878322,0.11013328,0.09097967,10.25197124,-0.01278317,0.03728426,0.00000000
1691752812880402,0.25857377,0.17717093,10.15620327,-0.02343582,0.02663161,-0.00319579
1691752812882296,0.19632454,0.12449849,10.23760605,-0.02663161,0.02343582,-0.00958738
1691752812884370,0.20590134,0.31603462,10.22324085,-0.02024002,0.03089267,-0.01704423
1691752812886304,0.27293900,0.16280572,10.14183807,-0.00426106,0.02130529,-0.01278317
1691752812888381,0.01915361,0.16759412,10.31900978,-0.00852212,0.02024002,-0.00532632
1691752812890322,0.14365210,0.18674773,10.13704967,-0.01917476,0.03408846,-0.00958738
1691752812892252,0.12449849,-0.00957681,10.23281765,-0.03941479,0.03941479,0.00000000
1691752812894305,0.06224924,0.21068975,10.30943298,-0.05432849,0.03408846,0.00319579
1691752812896527,0.20111294,0.08140286,10.12268448,-0.04474111,0.03834952,0.00106526
1691752812898338,0.09097967,0.19153613,10.29506683,-0.01065264,0.04474111,0.01065264
1691752812900278,0.21547815,0.34476504,10.08916569,-0.01384844,0.04154531,0.00532632
1691752812902279,0.15801731,0.10534488,10.09874249,-0.02769688,0.03941479,0.00532632
1691752812904398,0.02394202,0.33518824,10.18972206,-0.01065264,0.04474111,0.00213053
1691752812906268,0.11492168,0.01436521,9.94072533,-0.00426106,0.04900216,-0.00319579
1691752812908304,-0.01915361,0.16280572,10.16578007,-0.01491370,0.05752428,-0.00958738
1691752812910285,0.04788403,0.15322891,10.11310768,-0.01171791,0.05539375,-0.00213053
1691752812912297,0.16280572,0.01436521,10.01255131,0.00426106,0.05858954,-0.00532632
1691752812914297,0.12449849,0.39743748,10.16578007,-0.00106526,0.05432849,0.00532632
1691752812916337,0.20590134,0.04788403,10.01255131,-0.00639159,0.05113269,0.00532632
1691752812918266,0.15801731,0.29688102,10.10831928,0.00639159,0.04261058,0.01278317
1691752812920321,0.13407530,0.22984336,10.14662647,0.01065264,0.04580637,0.00106526
1691752812922304,0.15801731,0.09576806,10.04607010,0.00106526,0.04900216,0.00319579
1691752812924273,0.12928689,0.33997664,10.13704967,-0.00852212,0.04367584,0.01278317
1691752812926266,0.02394202,-0.17238252,10.07958889,0.00532632,0.03408846,0.01065264
1691752812928270,0.11492168,0.18674773,10.05085850,0.00745685,0.03728426,-0.00213053
1691752812930394,0.18195933,0.14844051,10.15141487,0.00639159,0.04048005,0.00000000
1691752812932283,0.14844051,-0.03351882,10.08916569,-0.00213053,0.03408846,0.00106526
1691752812934292,0.27293900,0.40222588,9.98860931,-0.00852212,0.02663161,0.00639159
1691752812936284,0.09576806,0.05746084,10.08916569,-0.02343582,0.02130529,0.01065264
1691752812938321,0.18674773,0.26336220,10.06522369,-0.02024002,0.02024002,0.01810949
1691752812940294,0.19153613,0.13407530,10.10831928,0.00106526,0.00639159,0.02237055
1691752812942272,-0.03351882,-0.02873042,10.17056847,0.01384844,-0.01384844,0.01384844
1691752812944296,0.20590134,0.27772740,10.02691650,0.01810949,-0.02024002,0.02130529
1691752812946307,0.12928689,-0.09097967,10.21366405,0.00852212,-0.02556635,0.00426106
1691752812948306,0.28730419,0.20590134,10.12747288,-0.00958738,-0.02450108,0.00426106
1691752812950335,0.29688102,0.16759412,10.09874249,-0.03089267,-0.03302320,0.00532632
1691752812952258,0.04309563,0.08619126,10.28070164,-0.03834952,-0.03408846,0.00213053
1691752812954381,0.22984336,0.39264908,10.06522369,-0.03834952,-0.03195793,-0.00213053
1691752812956323,0.05746084,-0.13886370,10.19929886,-0.03408846,-0.02982740,0.00213053
1691752812958323,0.11492168,0.20590134,10.18014526,-0.02450108,-0.02769688,0.00000000
1691752812960285,0.18674773,0.05267244,10.06043530,-0.00532632,-0.02024002,-0.00106526
1691752812962290,0.03351882,0.12449849,10.26633644,0.00000000,-0.02024002,-0.00639159
1691752812964328,0.25857377,0.41180268,10.04607010,-0.00852212,-0.02556635,0.00639159
1691752812966389,0.13886370,0.00000000,10.06522369,-0.01171791,-0.01491370,0.00106526
1691752812968377,0.10055647,0.41659111,10.14183807,-0.00639159,-0.00958738,0.01491370
1691752812970306,0.15322891,-0.06703765,10.03170490,-0.01171791,-0.01278317,0.01171791
1691752812972348,-0.02394202,0.14844051,10.10353088,-0.00745685,-0.01810949,0.01171791
1691752812974427,0.13886370,0.09097967,9.98382092,-0.00745685,-0.01917476,-0.00213053
1691752812976290,0.09097967,-0.18674773,9.96945572,-0.00106526,-0.02343582,0.00106526
1691752812978312,0.13886370,0.34476504,10.07001209,0.00852212,-0.02450108,-0.00213053
1691752812980306,0.09097967,-0.04788403,10.05085850,0.00745685,-0.03728426,-0.00639159
1691752812982201,0.20590134,0.29688102,10.00776291,0.00639159,-0.03834952,-0.01278317
1691752812984297,0.23463176,0.45489833,10.04128170,-0.01065264,-0.02769688,-0.01065264
1691752812986313,0.11013328,-0.16759412,9.98382092,-0.00852212,-0.03195793,-0.00213053
1691752812988328,0.22984336,0.47405192,9.93593693,-0.00319579,-0.03728426,-0.00106526
1691752812990253,-0.06703765,-0.04309563,10.08916569,0.00745685,-0.03195793,-0.00213053
1691752812992259,0.10534488,0.14365210,9.92157173,0.01491370,-0.03621899,-0.00213053
1691752812994297,0.18195933,0.26815060,9.91199493,0.01704423,-0.03941479,0.00106526
1691752812996455,-0.04309563,-0.21547815,9.95987892,0.02663161,-0.03195793,-0.00639159
1691752812998335,0.28730419,0.42137951,9.77791977,0.02343582,-0.02450108,-0.00319579
1691752813000345,0.00478840,0.05267244,10.01733971,0.02663161,-0.02130529,0.00000000
1691752813002257,0.12449849,0.18195933,9.84495735,0.00958738,-0.01917476,0.00532632
1691752813004308,0.27293900,0.34476504,9.74918938,0.00000000,-0.00745685,-0.00426106
1691752813006302,-0.07661445,-0.11971009,9.97903252,-0.00106526,-0.00958738,0.00426106
1691752813008332,0.21547815,0.33039984,9.71567059,0.01917476,-0.00852212,0.00745685
1691752813010292,-0.04309563,0.04309563,9.91678333,0.02024002,-0.01597897,0.01491370
1691752813012255,0.01436521,0.18674773,9.87368774,0.02024002,-0.01491370,0.01597897
1691752813014361,0.06703765,0.06703765,9.87368774,0.03302320,-0.00958738,0.01278317
1691752813016290,0.01915361,-0.01915361,9.95509052,0.02876214,-0.00745685,0.00958738
1691752813018282,0.25857377,0.40701428,9.71088219,0.03728426,-0.01597897,0.01278317
1691752813020350,0.09097967,0.12928689,9.83538055,0.04580637,-0.02769688,0.00745685
1691752813022310,0.05267244,0.24899697,9.92157173,0.05432849,-0.03302320,0.00958738
1691752813024283,0.26336220,0.29209262,9.72524738,0.04474111,-0.03089267,0.00000000
1691752813026300,0.01436521,-0.09576806,9.90720654,0.04154531,-0.03728426,0.00852212
1691752813028308,0.18674773,0.22026655,9.76355457,0.02982740,-0.05219796,0.00426106
1691752813030342,0.09097967,-0.05267244,9.81622696,0.02343582,-0.06072007,0.00745685
1691752813032289,0.09097967,0.10055647,9.93593693,0.02450108,-0.06391586,0.01491370
1691752813034277,0.19153613,0.24420857,9.83538055,0.02343582,-0.06817693,0.01597897
1691752813036278,0.08619126,0.04788403,9.87368774,0.02982740,-0.07030746,0.00958738
1691752813038348,0.24899697,0.41659111,9.87847614,0.03302320,-0.07137272,0.01065264
1691752813040325,0.11971009,0.00478840,9.95030212,0.02769688,-0.06711166,0.01384844
1691752813042263,0.14844051,0.20590134,9.87368774,0.03195793,-0.06498113,0.00745685
1691752813044279,0.09097967,0.24420857,9.91678333,0.02982740,-0.06604639,0.00213053
1691752813046277,0.01915361,-0.04309563,9.91199493,0.02876214,-0.06604639,-0.00639159
1691752813048372,0.24420857,0.35434186,9.81622696,0.02663161,-0.05965481,-0.00426106
1691752813050335,-0.03351882,-0.02873042,10.01255131,0.04900216,-0.05645901,-0.00319579
1691752813052200,0.14844051,0.20111294,9.83538055,0.05113269,-0.05645901,-0.00106526
1691752813054315,0.10534488,0.29209262,9.94072533,0.05645901,-0.05432849,0.00319579
1691752813056290,-0.02394202,0.00478840,9.97424412,0.05539375,-0.05326322,-0.00532632
1691752813058323,0.35434186,0.35434186,9.71567059,0.04580637,-0.05965481,-0.00213053
1691752813060304,-0.00478840,0.01436521,10.01733971,0.04474111,-0.05645901,-0.00213053
1691752813062229,0.14844051,0.13886370,9.77313137,0.03941479,-0.05539375,0.00852212
1691752813064324,0.14365210,0.29688102,9.78270817,0.03834952,-0.05113269,0.00213053
1691752813066386,-0.07182605,0.02873042,9.92636013,0.03302320,-0.05432849,0.00000000
1691752813068303,0.31603462,0.28251579,9.61032581,0.02556635,-0.04900216,0.00213053
1691752813070377,-0.01915361,0.00478840,9.95987892,0.01917476,-0.05006743,0.00852212
1691752813072304,0.04788403,0.09576806,9.81622696,0.02130529,-0.04900216,0.00000000
