timestamp,accel_x,accel_y,accel_z,gyro_x,gyro_y,gyro_z
1704703685930071,-0.00478840,0.00000000,9.92157173,-0.00106526,0.00106526,0.01384844
1704703685932121,-0.00478840,-0.00478840,9.92157173,0.00319579,-0.00639159,0.02982740
1704703685933996,-0.00957681,-0.00478840,9.92157173,0.00532632,-0.00745685,0.01065264
1704703685936047,-0.00478840,-0.00957681,9.92157173,0.00639159,-0.00639159,-0.01384844
1704703685937980,0.00478840,-0.00957681,9.91678333,0.00958738,0.00852212,-0.02982740
1704703685940029,0.00478840,-0.01436521,9.91678333,0.01065264,0.00852212,-0.02450108
1704703685941994,0.00957681,-0.01436521,9.91678333,0.00745685,0.00745685,0.00745685
1704703685944014,0.00478840,-0.01436521,9.91199493,0.00213053,-0.00639159,0.03408846
1704703685945998,0.00478840,-0.01436521,9.91678333,0.00532632,-0.01278317,0.02663161
1704703685948025,0.00478840,-0.01915361,9.91678333,0.00958738,-0.00745685,-0.00639159
1704703685950013,0.00957681,-0.02394202,9.91678333,0.01384844,0.00639159,-0.03089267
1704703685951978,0.00957681,-0.02394202,9.92157173,0.01597897,0.00745685,-0.02663161
1704703685954101,0.00478840,-0.02394202,9.92157173,0.00639159,-0.00106526,0.00532632
1704703685956005,0.00000000,-0.02394202,9.92157173,0.00426106,-0.00852212,0.03302320
1704703685958001,0.00000000,-0.02394202,9.92157173,0.00000000,-0.01065264,0.03302320
1704703685959968,-0.00478840,-0.02873042,9.92157173,0.00532632,-0.01065264,0.00532632
1704703685961986,-0.00478840,-0.02873042,9.92157173,0.00852212,-0.00426106,-0.03408846
1704703685964006,0.00000000,-0.02394202,9.92157173,0.01278317,-0.00106526,-0.03408846
1704703685966059,-0.00478840,-0.01915361,9.92157173,0.00852212,0.00319579,-0.01065264
1704703685968036,-0.00478840,-0.01915361,9.91678333,-0.00319579,-0.00426106,0.02876214
1704703685969977,-0.00478840,-0.01915361,9.91678333,-0.00532632,-0.00745685,0.03195793
1704703685971929,-0.00478840,-0.02394202,9.91678333,-0.00213053,-0.00852212,0.00958738
1704703685974021,-0.00478840,-0.01915361,9.91678333,0.00745685,-0.00426106,-0.02876214
1704703685976028,0.00000000,-0.01436521,9.91678333,0.00532632,0.00532632,-0.03195793
1704703685978096,0.00000000,-0.01436521,9.91678333,0.00106526,0.00852212,-0.01278317
1704703685979997,0.00957681,-0.01436521,9.90720654,-0.00426106,0.00532632,0.02769688
1704703685981944,0.00957681,-0.01436521,9.90720654,-0.00426106,0.00106526,0.03089267
1704703685984193,0.00478840,-0.00957681,9.90720654,0.00106526,-0.00745685,0.00958738
1704703685986020,0.00478840,-0.00957681,9.90720654,0.00319579,-0.00426106,-0.02663161
1704703685987972,0.00957681,-0.00957681,9.90720654,0.00319579,0.00426106,-0.03302320
1704703685989911,0.01436521,-0.00478840,9.90720654,0.00213053,0.00958738,-0.02343582
1704703685991986,0.01915361,-0.00478840,9.89762974,-0.00639159,0.00958738,0.02024002
1704703685993976,0.01436521,-0.00478840,9.89762974,-0.00532632,-0.00319579,0.03195793
1704703685996010,0.00957681,-0.00478840,9.89762974,0.00000000,-0.01597897,0.01491370
1704703685998020,0.00957681,0.00000000,9.89762974,0.00213053,-0.01491370,-0.01065264
1704703685999988,0.00957681,0.00000000,9.89762974,0.00532632,0.00000000,-0.02769688
1704703686001993,0.00957681,0.00000000,9.89284134,0.00319579,0.00532632,-0.02556635
1704703686004012,0.00957681,0.00000000,9.89762974,-0.00106526,0.00319579,0.00745685
1704703686006007,0.00478840,0.00000000,9.89284134,0.00000000,-0.00745685,0.02876214
1704703686007934,0.00000000,0.00000000,9.89762974,-0.00213053,-0.01810949,0.03195793
1704703686010013,-0.00478840,-0.00478840,9.89762974,0.00000000,-0.01278317,-0.00319579
1704703686011960,-0.00478840,-0.00478840,9.89762974,0.00213053,-0.00745685,-0.02556635
1704703686013973,0.00000000,-0.00478840,9.90241814,0.00852212,0.00532632,-0.03195793
1704703686016049,-0.00478840,-0.00478840,9.90241814,0.00745685,0.00213053,0.00532632
1704703686017992,-0.00478840,-0.00478840,9.90241814,0.00426106,-0.00213053,0.02343582
1704703686020072,-0.00478840,-0.00478840,9.90241814,0.00213053,-0.00745685,0.02982740
1704703686021958,-0.00478840,-0.01436521,9.90241814,0.00532632,-0.00852212,-0.00106526
1704703686024028,-0.00478840,-0.01436521,9.90241814,0.01171791,-0.00106526,-0.02556635
1704703686025962,0.00000000,-0.01915361,9.90241814,0.01491370,0.00426106,-0.03089267
1704703686028012,0.00000000,-0.01436521,9.90241814,0.00745685,0.00745685,-0.00426106
1704703686029979,0.00000000,-0.01915361,9.90241814,0.00319579,0.00532632,0.01810949
1704703686032011,0.00000000,-0.01915361,9.90241814,0.00000000,-0.00639159,0.03089267
1704703686034032,0.00000000,-0.02873042,9.90241814,0.00426106,-0.00745685,0.00958738
1704703686035981,-0.00478840,-0.02394202,9.90720654,0.01384844,-0.00319579,-0.01704423
1704703686038006,0.00000000,-0.02394202,9.90720654,0.01384844,0.00319579,-0.03302320
1704703686040107,0.00000000,-0.01915361,9.90720654,0.00639159,0.00852212,-0.01491370
1704703686042032,0.00000000,-0.02394202,9.90241814,0.00106526,0.00426106,0.01491370
1704703686044034,0.00000000,-0.02394202,9.90241814,0.00106526,-0.00319579,0.02876214
1704703686046017,-0.00478840,-0.01915361,9.90720654,0.00532632,-0.01278317,0.02024002
1704703686048031,-0.00957681,-0.01436521,9.91199493,0.00639159,-0.01384844,-0.01065264
1704703686050060,-0.00957681,-0.00957681,9.90720654,0.00319579,-0.00532632,-0.03195793
1704703686052015,-0.00478840,-0.00957681,9.90720654,0.00213053,0.00745685,-0.02024002
1704703686054009,-0.00478840,-0.00478840,9.90241814,0.00106526,0.00639159,0.00639159
1704703686056022,-0.00478840,-0.00478840,9.89762974,-0.00106526,-0.00426106,0.02237055
1704703686058035,-0.00957681,0.00000000,9.90241814,-0.00426106,-0.01491370,0.02130529
1704703686059992,-0.01436521,0.00478840,9.89762974,-0.00532632,-0.01491370,-0.00106526
1704703686061993,-0.00957681,0.00478840,9.89762974,-0.01597897,-0.00852212,-0.01704423
1704703686063985,-0.00478840,0.00478840,9.89284134,0.02556635,0.00745685,-0.00532632
1704703686066067,0.00478840,0.00957681,9.89762974,0.07456851,0.01171791,0.04154531
1704703686068038,-0.00478840,0.00957681,9.90720654,0.02982740,0.00319579,0.09374327
1704703686070027,-0.00957681,0.00957681,9.91199493,-0.04367584,-0.00532632,0.11717909
1704703686072058,-0.00478840,0.00000000,9.91678333,-0.04793690,-0.01065264,0.08948221
1704703686074075,0.01436521,-0.01436521,9.93114853,-0.08948221,-0.00213053,0.08415589
1704703686076016,0.02394202,-0.01915361,9.94551373,-0.06072007,0.00639159,0.11504856
1704703686078059,0.00957681,-0.01915361,9.95987892,-0.01917476,-0.00639159,0.13848437
1704703686080009,0.00000000,-0.01915361,9.96945572,0.00426106,-0.01278317,0.15659387
1704703686082005,0.00478840,-0.03351882,9.97903252,0.02237055,-0.03621899,0.17683390
1704703686084015,0.00000000,-0.04309563,9.98382092,-0.05326322,-0.06178534,0.18535601
1704703686086019,-0.02394202,-0.04309563,9.98382092,-0.08628642,-0.08309063,0.18216021
1704703686088008,-0.03830723,-0.05746084,9.97903252,-0.06924219,-0.09161274,0.16831177
1704703686090049,-0.04788403,-0.04788403,9.98860931,-0.05006743,-0.10972223,0.11291803
1704703686091983,-0.07661445,-0.02873042,10.00776291,-0.06498113,-0.15020229,0.07989483
1704703686094031,-0.10534488,-0.02394202,10.03649330,-0.14168017,-0.17789917,0.07030746
1704703686096027,-0.12449849,-0.01915361,10.08437729,-0.13102752,-0.19281286,0.02237055
1704703686098004,-0.14844051,-0.00957681,10.11789608,-0.17363811,-0.20666130,-0.00852212
1704703686100082,-0.15801731,0.00000000,10.14183807,-0.27164242,-0.22583605,0.01065264
1704703686102004,-0.18195933,0.00000000,10.21366405,-0.33662355,-0.28868666,0.02663161
1704703686104074,-0.19632454,0.00000000,10.27112484,-0.35047200,-0.31851408,0.02343582
1704703686106013,-0.18674773,0.01436521,10.27112484,-0.42184472,-0.31851408,0.00639159
1704703686108015,-0.20111294,0.01436521,10.32379818,-0.44528052,-0.35899413,0.00426106
1704703686110020,-0.20111294,0.02394202,10.38604736,-0.48043427,-0.40266997,-0.01491370
1704703686111958,-0.19632454,0.02873042,10.41956615,-0.50813115,-0.40586576,-0.02237055
1704703686113991,-0.20111294,0.03351882,10.46266174,-0.51026165,-0.40586576,-0.03621899
1704703686116150,-0.19632454,0.05746084,10.47223854,-0.47830373,-0.45060685,-0.04154531
1704703686118029,-0.19632454,0.05746084,10.48660374,-0.48789111,-0.44847631,-0.03195793
1704703686120015,-0.19153613,0.06224924,10.50575733,-0.50067431,-0.42823631,-0.02769688
1704703686121979,-0.18195933,0.07661445,10.47223854,-0.44634581,-0.44315001,-0.01278317
1704703686124014,-0.18674773,0.07182605,10.45787334,-0.43675843,-0.46125951,0.01171791
1704703686126061,-0.17717093,0.09097967,10.43871975,-0.41438785,-0.42290998,0.03089267
1704703686128020,-0.17238252,0.10534488,10.38125896,-0.37816888,-0.34940675,0.06285060
1704703686129976,-0.17238252,0.11492168,10.33816338,-0.32703617,-0.32916671,0.06604639
1704703686131980,-0.16280572,0.12449849,10.27112484,-0.30360037,-0.30360037,0.08202536
1704703686134048,-0.17238252,0.14844051,10.19929886,-0.22477080,-0.24181503,0.09374327
1704703686136006,-0.17238252,0.16759412,10.13704967,-0.17470337,-0.17470337,0.12144014
1704703686138003,-0.17717093,0.16759412,10.03649330,-0.11398330,-0.12144014,0.11930962
1704703686140008,-0.18195933,0.19632454,9.95509052,-0.05432849,-0.09480853,0.12570120
1704703686142129,-0.18195933,0.21547815,9.86889935,0.00426106,-0.05326322,0.14913702
1704703686143998,-0.19632454,0.21547815,9.76355457,0.05219796,0.00000000,0.14487596
1704703686146010,-0.19632454,0.23463176,9.67257500,0.11717909,0.04154531,0.12250541
1704703686147987,-0.19632454,0.24899697,9.57201862,0.15020229,0.08841695,0.12783173
1704703686150052,-0.20590134,0.26336220,9.46188545,0.17896442,0.14807175,0.12250541
1704703686151995,-0.21068975,0.25857377,9.38048267,0.23648870,0.18109496,0.11291803
1704703686153984,-0.21068975,0.25857377,9.28471375,0.28336033,0.22477080,0.12783173
1704703686156004,-0.21547815,0.27772740,9.20331097,0.30786142,0.28016454,0.13848437
1704703686158083,-0.22026655,0.25857377,9.16021538,0.33236250,0.33023196,0.14061491
1704703686160036,-0.21547815,0.23942018,9.09796619,0.37816888,0.37603834,0.14807175
1704703686161966,-0.20111294,0.23942018,9.06444740,0.40906155,0.41864893,0.14487596
1704703686163999,-0.19632454,0.21547815,9.08360100,0.39734364,0.46019423,0.14274544
1704703686166033,-0.18195933,0.18195933,9.07402420,0.40799627,0.48256478,0.12357067
1704703686168010,-0.16280572,0.15322891,9.05965900,0.42930156,0.49534798,0.10120012
1704703686170022,-0.14365210,0.12928689,9.07402420,0.43675843,0.52943641,0.08415589
1704703686172068,-0.11971009,0.09576806,9.07881260,0.43462789,0.52517539,0.08202536
1704703686173991,-0.09097967,0.05267244,9.08360100,0.42610577,0.49215218,0.07350325
1704703686176036,-0.06224924,0.01915361,9.11233139,0.42823631,0.51771849,0.07137272
1704703686178023,-0.03351882,-0.01915361,9.15542698,0.43143210,0.54115433,0.06604639
1704703686180041,0.01915361,-0.06703765,9.22246456,0.40160468,0.51132691,0.08948221
1704703686181985,0.07182605,-0.11492168,9.37569427,0.38136467,0.48682585,0.07563377
1704703686184069,0.10534488,-0.14365210,9.45709705,0.37603834,0.46658581,0.07030746
1704703686186015,0.22505496,-0.22505496,9.69172859,0.39095205,0.36112463,0.05858954
1704703686188007,0.26815060,-0.25378537,9.80186176,0.37816888,0.29188246,0.05539375
1704703686190061,0.34955344,-0.30645782,10.00776291,0.34834146,0.23116238,0.04367584
1704703686192012,0.43095630,-0.35434186,10.13704967,0.33342776,0.17363811,0.02024002
1704703686194026,0.50278234,-0.41180268,10.26633644,0.32597092,0.10652644,0.03302320
1704703686196009,0.56503159,-0.45489833,10.38604736,0.28122982,0.04048005,0.04474111
1704703686198011,0.61770403,-0.48362875,10.42435455,0.25246766,0.03408846,0.02876214
1704703686200046,0.64164603,-0.53151280,10.45787334,0.23329291,0.03728426,0.03941479
1704703686202003,0.66558808,-0.56503159,10.48660374,0.20985709,0.00319579,0.03515373
1704703686203993,0.68474168,-0.57460839,10.46745014,0.17257284,-0.01065264,0.03834952
1704703686205989,0.67516488,-0.59376204,10.47702694,0.14061491,0.00745685,0.02237055
1704703686208050,0.65601128,-0.61291564,10.49618053,0.13635385,0.00213053,0.02237055
1704703686210055,0.63685763,-0.60812724,10.46745014,0.10865697,-0.00106526,0.03302320
1704703686211980,0.60333884,-0.59855044,10.46266174,0.08202536,-0.00213053,0.03515373
1704703686213992,0.52672440,-0.57939678,10.46266174,0.06924219,-0.00213053,0.02343582
1704703686216061,0.50757074,-0.56503159,10.43871975,0.05326322,-0.00532632,0.02769688
1704703686218006,0.46447513,-0.54108959,10.40520096,0.03621899,-0.02130529,0.03408846
1704703686220015,0.37828386,-0.49799395,10.35731697,0.00213053,-0.04580637,0.03089267
1704703686221976,0.35434186,-0.47884035,10.32858658,0.00000000,-0.05006743,0.02876214
1704703686223990,0.31124622,-0.45489833,10.28070164,-0.02663161,-0.06711166,0.03834952
1704703686226031,0.23463176,-0.38786069,10.24718285,-0.07350325,-0.10865697,0.03621899
1704703686228018,0.21068975,-0.36391866,10.22324085,-0.09054748,-0.10972223,0.02769688
1704703686230014,0.15801731,-0.33039984,10.18493366,-0.09161274,-0.11185277,0.03089267
1704703686231964,0.11013328,-0.28251579,10.17056847,-0.11291803,-0.13422331,0.03515373
1704703686234032,0.05746084,-0.22026655,10.14662647,-0.15020229,-0.14487596,0.02982740
1704703686236008,0.01436521,-0.19153613,10.11310768,-0.18109496,-0.17044231,0.02769688
1704703686238034,-0.02394202,-0.15801731,10.08916569,-0.19920444,-0.20453078,0.02237055
1704703686240008,-0.06703765,-0.11013328,10.06043530,-0.23542345,-0.23009712,0.02450108
1704703686242008,-0.09576806,-0.08140286,10.02691650,-0.27270770,-0.24501082,0.02130529
1704703686243995,-0.11971009,-0.04788403,10.01733971,-0.29188246,-0.24501082,0.01278317
1704703686246025,-0.16280572,-0.00957681,10.02691650,-0.28229508,-0.22796659,0.00319579
1704703686248018,-0.19153613,0.03351882,10.05085850,-0.28122982,-0.19281286,0.00106526
1704703686250033,-0.22026655,0.08619126,10.11310768,-0.27696875,-0.16085494,-0.01597897
1704703686251998,-0.26336220,0.13407530,10.18014526,-0.27377295,-0.13741912,-0.01704423
1704703686254063,-0.28251579,0.17238252,10.20887566,-0.28229508,-0.11930962,-0.01704423
1704703686255983,-0.29688102,0.21068975,10.22802925,-0.31105721,-0.12996227,-0.01810949
1704703686258094,-0.30645782,0.23463176,10.21366405,-0.34408042,-0.17576863,-0.00426106
1704703686260465,-0.30166942,0.24420857,10.18493366,-0.35792884,-0.19707392,0.00000000
1704703686261900,-0.30166942,0.25378537,10.16099167,-0.36432043,-0.18961707,-0.00639159
1704703686264079,-0.30166942,0.28251579,10.12268448,-0.37710360,-0.16298546,-0.01491370
1704703686266023,-0.29209262,0.29209262,10.09874249,-0.36005938,-0.16405073,-0.01491370
1704703686268101,-0.29209262,0.29688102,10.10353088,-0.35260254,-0.13848437,-0.02237055
1704703686269996,-0.29209262,0.32561144,10.12747288,-0.35579833,-0.09906960,-0.03089267
1704703686272007,-0.27293900,0.34476504,10.10353088,-0.35686359,-0.08202536,-0.03408846
1704703686274058,-0.26815060,0.33997664,10.10831928,-0.35260254,-0.10439591,-0.01917476
1704703686276031,-0.25378537,0.34955344,10.11310768,-0.35686359,-0.10759171,-0.02556635
1704703686278028,-0.22505496,0.35913026,10.06522369,-0.36112463,-0.10865697,-0.01917476
1704703686280047,-0.20590134,0.34476504,10.04607010,-0.35579833,-0.12357067,-0.01491370
1704703686281961,-0.18674773,0.34476504,10.02212811,-0.34727621,-0.11504856,-0.00745685
1704703686284045,-0.15801731,0.35913026,9.96466732,-0.32170987,-0.08948221,-0.01065264
1704703686286029,-0.13407530,0.34476504,9.95030212,-0.29507825,-0.06391586,-0.01810949
1704703686288006,-0.11013328,0.33518824,9.94072533,-0.27696875,-0.04474111,-0.01810949
1704703686290010,-0.07661445,0.33039984,9.91199493,-0.25672874,-0.02556635,0.00426106
1704703686292009,-0.05267244,0.31603462,9.90720654,-0.23755397,0.01384844,0.01491370
1704703686294031,-0.02873042,0.29209262,9.89762974,-0.20453078,0.03195793,0.03195793
1704703686296167,0.00478840,0.28251579,9.85453415,-0.16405073,0.02130529,0.04580637
1704703686298161,0.05267244,0.25857377,9.83059216,-0.14381070,0.06072007,0.07243798
1704703686300023,0.07661445,0.22984336,9.77791977,-0.11717909,0.10333065,0.05539375
1704703686302008,0.11971009,0.21068975,9.74440098,-0.03834952,0.08309063,0.07243798
1704703686303997,0.14365210,0.20590134,9.75876617,0.00639159,0.07350325,0.07563377
1704703686306105,0.17238252,0.18195933,9.76355457,0.01917476,0.11291803,0.07137272
1704703686308007,0.22026655,0.13407530,9.74918938,0.08522116,0.10865697,0.05858954
1704703686310201,0.23942018,0.12449849,9.75876617,0.14700650,0.08202536,0.07030746
1704703686312007,0.28251579,0.09576806,9.75397778,0.18855180,0.10013486,0.07243798
1704703686314012,0.29209262,0.08619126,9.73961258,0.20133498,0.11930962,0.06604639
1704703686316059,0.31124622,0.05267244,9.73003578,0.26844662,0.08948221,0.07776430
1704703686318086,0.33039984,0.03830723,9.71567059,0.33342776,0.09161274,0.08309063
1704703686320018,0.33039984,0.01915361,9.69172859,0.35792884,0.14487596,0.07882957
1704703686321970,0.33039984,-0.02394202,9.69172859,0.38669100,0.13635385,0.08309063
1704703686323988,0.33997664,-0.06224924,9.70609379,0.42930156,0.12357067,0.08309063
1704703686326050,0.33518824,-0.08619126,9.71567059,0.45380265,0.16831177,0.06817693
1704703686328079,0.33039984,-0.12928689,9.73003578,0.48043427,0.17896442,0.06072007
1704703686329996,0.33039984,-0.17238252,9.73482418,0.51132691,0.15233281,0.05965481
1704703686332114,0.33039984,-0.19632454,9.74440098,0.52517539,0.17257284,0.03728426
1704703686334053,0.32082301,-0.22984336,9.74918938,0.53902382,0.18109496,0.04580637
1704703686336028,0.31603462,-0.27293900,9.73482418,0.56032908,0.15765914,0.03834952
1704703686337979,0.32082301,-0.30645782,9.74440098,0.55287224,0.15339808,0.02237055
1704703686340053,0.31124622,-0.36391866,9.77313137,0.53369749,0.16405073,0.03834952
1704703686342011,0.31124622,-0.38786069,9.77791977,0.53902382,0.15126754,0.04048005
1704703686344135,0.31124622,-0.43095630,9.81622696,0.52091432,0.13848437,0.03408846
1704703686346010,0.30166942,-0.47884035,9.89284134,0.49215218,0.13422331,0.03834952
1704703686348005,0.30645782,-0.50278234,9.91678333,0.45593318,0.10439591,0.03834952
1704703686350080,0.31124622,-0.55545479,10.01733971,0.39947417,0.07882957,0.03195793
1704703686351999,0.30645782,-0.59855044,10.11789608,0.34514567,0.06711166,0.02663161
1704703686354005,0.29688102,-0.63685763,10.16578007,0.32810146,0.03834952,0.02769688
1704703686356016,0.29209262,-0.67037648,10.24239445,0.32703617,0.00745685,0.03941479
1704703686358023,0.28251579,-0.69431847,10.31422138,0.28229508,-0.00639159,0.03834952
1704703686360052,0.27772740,-0.70389527,10.29506683,0.27590349,-0.02343582,0.02982740
1704703686362099,0.25857377,-0.70389527,10.28070164,0.28655612,-0.06498113,0.01917476
1704703686364058,0.23463176,-0.70389527,10.28070164,0.26312032,-0.09161274,0.01704423
1704703686366018,0.22026655,-0.68953007,10.23281765,0.21305288,-0.11185277,0.01491370
1704703686368033,0.18195933,-0.66558808,10.21845245,0.18642128,-0.13635385,0.01278317
1704703686370015,0.13886370,-0.65601128,10.22802925,0.16085494,-0.13422331,0.01065264
1704703686371988,0.11013328,-0.62728083,10.19929886,0.12357067,-0.13741912,0.01171791
1704703686374009,0.06224924,-0.58897364,10.20887566,0.08735169,-0.17150757,0.02343582
1704703686376077,0.00957681,-0.56503159,10.22802925,0.03515373,-0.17789917,0.01384844
1704703686378056,-0.01915361,-0.52193600,10.19451046,0.00319579,-0.18961707,0.00532632
1704703686380044,-0.04788403,-0.48841715,10.17535686,-0.03408846,-0.24181503,0.00958738
1704703686382074,-0.06703765,-0.45010993,10.13704967,-0.07669904,-0.25885925,0.00106526
1704703686384025,-0.08619126,-0.40222588,10.07958889,-0.10652644,-0.25779399,-0.00532632
1704703686386075,-0.11971009,-0.36870706,10.07480049,-0.13102752,-0.23435818,0.00106526
1704703686388135,-0.14844051,-0.32082301,10.07480049,-0.16085494,-0.20666130,-0.00852212
1704703686389998,-0.19153613,-0.23942018,10.10353088,-0.19387813,-0.13102752,-0.02876214
1704703686391999,-0.20590134,-0.21547815,10.13226128,-0.19813919,-0.10546118,-0.03941479
1704703686394111,-0.22984336,-0.15322891,10.16578007,-0.22157501,-0.09480853,-0.04154531
1704703686396010,-0.25378537,-0.11492168,10.18014526,-0.26098979,-0.09161274,-0.04687164
1704703686398052,-0.25857377,-0.08140286,10.18972206,-0.31744879,-0.12250541,-0.05113269
1704703686400080,-0.25857377,-0.04309563,10.15620327,-0.36432043,-0.16085494,-0.03515373
1704703686402010,-0.26336220,-0.03830723,10.10353088,-0.39947417,-0.18216021,-0.03515373
1704703686404025,-0.24899697,-0.01436521,10.07480049,-0.45380265,-0.17789917,-0.05219796
1704703686406049,-0.23942018,0.00957681,10.05085850,-0.49854377,-0.17896442,-0.05326322
1704703686408033,-0.23942018,0.01915361,10.01733971,-0.50919640,-0.15339808,-0.06711166
1704703686410061,-0.22505496,0.05267244,10.02212811,-0.50280482,-0.11930962,-0.07989483
1704703686412091,-0.22505496,0.09576806,10.06043530,-0.52730590,-0.07563377,-0.08628642
1704703686413983,-0.21068975,0.12449849,10.06043530,-0.54648066,-0.06924219,-0.09587380
1704703686416130,-0.20590134,0.14844051,10.06522369,-0.55713332,-0.06711166,-0.07350325
1704703686418033,-0.20590134,0.17717093,10.08437729,-0.55926383,-0.05219796,-0.06178534
1704703686420094,-0.18195933,0.20111294,10.03170490,-0.57098174,-0.06924219,-0.03941479
1704703686422008,-0.17717093,0.21068975,9.98860931,-0.59761333,-0.06604639,-0.02024002
1704703686423997,-0.17238252,0.22505496,9.95987892,-0.57950383,-0.05432849,-0.02237055
1704703686426015,-0.14365210,0.24420857,9.88326454,-0.55393749,-0.03408846,-0.01491370
1704703686428034,-0.13886370,0.25857377,9.84495735,-0.54221958,0.00213053,-0.02343582
1704703686430021,-0.13886370,0.28251579,9.84016895,-0.51558799,0.02343582,-0.01810949
1704703686432042,-0.11971009,0.31124622,9.81143856,-0.46445531,0.05752428,-0.03089267
1704703686433991,-0.10055647,0.34955344,9.81143856,-0.44421527,0.10972223,-0.03302320
1704703686436095,-0.09097967,0.36391866,9.81143856,-0.43782368,0.12357067,-0.02663161
1704703686438164,-0.07182605,0.38307226,9.78749657,-0.40053943,0.12676647,-0.00958738
1704703686440010,-0.05267244,0.39743748,9.77313137,-0.35792884,0.13528858,-0.00532632
1704703686442121,-0.03351882,0.41180268,9.75876617,-0.34301513,0.15552860,0.00958738
1704703686444038,-0.00957681,0.42137951,9.72045898,-0.30040458,0.12250541,0.02450108
1704703686446027,0.03351882,0.43574470,9.75397778,-0.21518342,0.10333065,0.01384844
1704703686448041,0.08619126,0.44532153,9.80665016,-0.13102752,0.09800433,0.00639159
1704703686450014,0.13886370,0.45010993,9.84495735,-0.08522116,0.05219796,0.01810949
1704703686452027,0.19632454,0.45489833,9.91678333,-0.01810949,0.03941479,0.00958738
1704703686454048,0.24420857,0.46447513,9.95987892,0.04261058,0.04793690,0.01704423
1704703686456087,0.28730419,0.45010993,9.95987892,0.04367584,0.06498113,0.02450108
1704703686457986,0.31124622,0.43574470,9.95509052,0.04580637,0.07776430,0.05006743
1704703686460046,0.33039984,0.42616791,9.92157173,0.07882957,0.09587380,0.05858954
1704703686462023,0.33997664,0.40701428,9.86411095,0.11717909,0.14274544,0.04367584
1704703686464044,0.33997664,0.37349546,9.81143856,0.13102752,0.16192019,0.03834952
1704703686466027,0.35434186,0.33518824,9.75397778,0.17257284,0.15233281,0.04474111
1704703686468087,0.35913026,0.31603462,9.75876617,0.22796659,0.14700650,0.05326322
1704703686470114,0.35913026,0.26336220,9.77791977,0.29401299,0.14594123,0.04261058
1704703686471970,0.36870706,0.21547815,9.79228497,0.32490566,0.14700650,0.04687164
1704703686474103,0.37349546,0.16759412,9.82101536,0.35579833,0.12783173,0.04367584
1704703686476041,0.37349546,0.11013328,9.84974575,0.39414784,0.12463594,0.05006743
1704703686478132,0.37828386,0.05746084,9.84016895,0.43569314,0.14274544,0.03089267
1704703686480047,0.36870706,0.02394202,9.83538055,0.49854377,0.14381070,0.03941479
1704703686482106,0.35913026,-0.00957681,9.81622696,0.53795856,0.13102752,0.04474111
1704703686484041,0.34955344,-0.04788403,9.77791977,0.56245965,0.14168017,0.03089267
1704703686486064,0.33039984,-0.07661445,9.75397778,0.59548283,0.15233281,0.01704423
1704703686488024,0.31603462,-0.10534488,9.73482418,0.62211442,0.12996227,0.01065264
1704703686490026,0.30166942,-0.13886370,9.71567059,0.61785334,0.10333065,-0.00106526
1704703686492132,0.28251579,-0.17717093,9.73482418,0.61572284,0.08522116,-0.01597897
1704703686494056,0.26336220,-0.22505496,9.75876617,0.62211442,0.05965481,-0.01810949
1704703686496119,0.24899697,-0.26815060,9.78270817,0.60720074,0.05219796,-0.01917476
1704703686498025,0.24420857,-0.31124622,9.83538055,0.58056909,0.02237055,0.00639159
1704703686500027,0.22984336,-0.36391866,9.88805294,0.57311225,-0.01704423,0.02556635
1704703686502003,0.21068975,-0.41180268,9.94072533,0.54435015,-0.01065264,0.02130529
1704703686504025,0.20111294,-0.45489833,10.01733971,0.47510794,0.00745685,0.03728426
1704703686506061,0.18195933,-0.51235914,10.09395409,0.41758364,-0.01491370,0.05219796
1704703686507990,0.16280572,-0.56024319,10.16578007,0.38136467,-0.03302320,0.05006743
1704703686510070,0.12449849,-0.62249243,10.27591324,0.31957933,-0.02663161,0.04474111
1704703686512028,0.11492168,-0.64164603,10.29506683,0.28016454,-0.04474111,0.05858954
1704703686514018,0.09576806,-0.66079968,10.32379818,0.24820662,-0.10226539,0.06072007
1704703686516025,0.08140286,-0.67995328,10.34774017,0.23329291,-0.12037488,0.05326322
1704703686518058,0.06224924,-0.69431847,10.32858658,0.21411815,-0.12463594,0.04367584
1704703686520071,0.05267244,-0.67995328,10.30464458,0.18855180,-0.17470337,0.05113269
1704703686521988,0.02873042,-0.67516488,10.29506683,0.16724652,-0.19281286,0.04900216
1704703686523992,0.00478840,-0.66558808,10.29027843,0.15446334,-0.18216021,0.04154531
1704703686526048,-0.01915361,-0.63206923,10.29506683,0.13741912,-0.15659387,0.04048005
1704703686528025,-0.05746084,-0.61770403,10.30943298,0.10439591,-0.16085494,0.04261058
1704703686530065,-0.08140286,-0.58897364,10.32379818,0.08522116,-0.15872440,0.03941479
1704703686532083,-0.11013328,-0.54108959,10.33816338,0.06924219,-0.15659387,0.02769688
1704703686534009,-0.12928689,-0.52193600,10.32858658,0.03621899,-0.15872440,0.01704423
1704703686536160,-0.14365210,-0.47884035,10.31422138,0.00852212,-0.15978967,0.01384844
1704703686538018,-0.15322891,-0.43095630,10.29985619,-0.02130529,-0.18535601,0.01384844
1704703686540079,-0.16280572,-0.41180268,10.26633644,-0.04580637,-0.18748654,0.01384844
1704703686541979,-0.17238252,-0.36870706,10.24718285,-0.07989483,-0.17363811,0.01491370
1704703686544067,-0.18674773,-0.32561144,10.24239445,-0.10333065,-0.16511598,0.01917476
1704703686546019,-0.18674773,-0.29209262,10.20887566,-0.13954964,-0.14381070,0.01917476
1704703686548053,-0.19632454,-0.24899697,10.18972206,-0.17683390,-0.13422331,0.01384844
1704703686550012,-0.20111294,-0.21547815,10.18972206,-0.23116238,-0.11930962,-0.00213053
1704703686551979,-0.18674773,-0.18195933,10.15620327,-0.27270770,-0.12357067,-0.00319579
1704703686554034,-0.19153613,-0.15322891,10.14183807,-0.30892667,-0.13954964,-0.00106526
1704703686556053,-0.18674773,-0.12928689,10.13704967,-0.34088463,-0.13209279,-0.00745685
1704703686558030,-0.16280572,-0.09576806,10.08437729,-0.39947417,-0.10652644,-0.01810949
1704703686560021,-0.16759412,-0.08140286,10.06522369,-0.43249735,-0.09800433,-0.02343582
1704703686562020,-0.15322891,-0.06224924,10.05564690,-0.47510794,-0.09906960,-0.03089267
1704703686564041,-0.13886370,-0.04309563,10.00776291,-0.51878381,-0.06924219,-0.03834952
1704703686565991,-0.13886370,-0.04309563,9.99339771,-0.55606806,-0.05219796,-0.03621899
1704703686568025,-0.12449849,-0.01915361,9.96466732,-0.58056909,-0.03834952,-0.02450108
1704703686570081,-0.12449849,0.00000000,9.92636013,-0.60080916,-0.00639159,-0.02237055
1704703686572029,-0.11492168,0.00478840,9.91678333,-0.63170183,0.02663161,-0.02450108
1704703686574003,-0.10055647,0.02873042,9.88326454,-0.64981133,0.03728426,-0.01491370
1704703686576154,-0.10055647,0.04788403,9.84495735,-0.65833342,0.03834952,-0.00319579
1704703686578008,-0.09097967,0.06703765,9.82580376,-0.64555025,0.08096009,-0.00958738
1704703686580055,-0.09097967,0.08140286,9.81143856,-0.64341974,0.09906960,-0.00639159
1704703686582011,-0.08619126,0.10534488,9.76834297,-0.62850600,0.08628642,0.00532632
1704703686584013,-0.07661445,0.11971009,9.75876617,-0.60933125,0.11078750,0.00213053
1704703686586106,-0.06703765,0.16759412,9.73961258,-0.55926383,0.15446334,-0.01171791
1704703686588073,-0.06703765,0.18195933,9.73482418,-0.52411008,0.14913702,-0.00745685
1704703686590181,-0.04788403,0.20590134,9.74918938,-0.48789111,0.16618125,-0.00106526
1704703686592002,-0.02394202,0.25857377,9.76355457,-0.42610577,0.19494340,-0.00639159
1704703686594030,-0.01436521,0.28251579,9.77791977,-0.35473305,0.16618125,0.00426106
1704703686596045,0.02394202,0.32561144,9.86411095,-0.26951191,0.11824435,0.00958738
1704703686598033,0.07661445,0.37349546,9.94072533,-0.18748654,0.11078750,0.01171791
1704703686600019,0.11971009,0.42616791,9.99818611,-0.11717909,0.08522116,0.00745685
1704703686602003,0.16759412,0.45489833,10.06522369,-0.06604639,0.07456851,0.02130529
1704703686604098,0.22026655,0.46926352,10.09874249,-0.04793690,0.08415589,0.02556635
1704703686606069,0.24420857,0.48841715,10.10831928,-0.02982740,0.10333065,0.02769688
1704703686608046,0.26815060,0.48841715,10.11789608,0.00745685,0.10439591,0.05006743
1704703686610021,0.28730419,0.48362875,10.09395409,0.01597897,0.15020229,0.03728426
1704703686612112,0.29209262,0.48362875,10.05564690,0.04580637,0.19068234,0.03621899
1704703686614087,0.30166942,0.46447513,10.01733971,0.07137272,0.18642128,0.02343582
1704703686616165,0.30645782,0.44532153,9.96466732,0.09161274,0.18748654,0.03408846
1704703686618054,0.29688102,0.43574470,9.93114853,0.12676647,0.20666130,0.04048005
1704703686620176,0.30645782,0.41180268,9.90241814,0.17789917,0.18748654,0.05006743
1704703686621977,0.31603462,0.38307226,9.87847614,0.22477080,0.16724652,0.04580637
1704703686624018,0.32561144,0.34476504,9.88805294,0.25779399,0.15978967,0.04580637
1704703686626049,0.33518824,0.32082301,9.89284134,0.29614350,0.13102752,0.04367584
1704703686628126,0.33997664,0.28730419,9.90720654,0.36432043,0.09374327,0.03728426
1704703686630077,0.34955344,0.24420857,9.90720654,0.39627838,0.08309063,0.03195793
1704703686632003,0.35434186,0.22505496,9.90241814,0.41758364,0.08309063,0.02876214
1704703686633992,0.34955344,0.19153613,9.89284134,0.47084689,0.07882957,0.01704423
1704703686636022,0.34476504,0.16759412,9.86889935,0.52304482,0.06391586,0.01597897
1704703686638157,0.33997664,0.13886370,9.84016895,0.54861116,0.05006743,0.01384844
1704703686640062,0.33039984,0.11013328,9.82101536,0.57098174,0.03302320,0.00319579
1704703686642018,0.32082301,0.08619126,9.78270817,0.60613549,0.02982740,-0.01171791
1704703686644031,0.30166942,0.06224924,9.75876617,0.62424499,0.02663161,-0.02024002
1704703686646063,0.28730419,0.03351882,9.74918938,0.62211442,-0.02024002,-0.01065264
1704703686648020,0.27772740,0.00478840,9.74440098,0.61678809,-0.05965481,-0.01810949
1704703686650029,0.25378537,-0.03830723,9.77791977,0.61678809,-0.06285060,-0.02130529
1704703686651970,0.23942018,-0.07661445,9.81622696,0.60613549,-0.07350325,-0.00426106
1704703686654082,0.22505496,-0.11492168,9.85932255,0.58696073,-0.09800433,0.01171791
1704703686656030,0.19632454,-0.17238252,9.95509052,0.55180699,-0.10226539,0.01171791
1704703686658084,0.17717093,-0.22026655,10.03649330,0.50600058,-0.09054748,0.02130529
1704703686660017,0.14365210,-0.26815060,10.12747288,0.45593318,-0.09267800,0.02663161
1704703686662059,0.11492168,-0.33039984,10.24718285,0.42184472,-0.10013486,0.02769688
1704703686664028,0.09576806,-0.36870706,10.30464458,0.40373522,-0.09693906,0.02237055
1704703686665986,0.06703765,-0.40701428,10.36210537,0.38136467,-0.10333065,0.02237055
1704703686668033,0.04788403,-0.44532153,10.40998936,0.35899413,-0.14168017,0.02024002
1704703686670072,0.04309563,-0.45010993,10.40520096,0.34194988,-0.17363811,0.01917476
1704703686671976,0.02394202,-0.46447513,10.40520096,0.33768883,-0.19387813,0.00532632
1704703686674065,0.02873042,-0.46926352,10.39083576,0.32384038,-0.19174761,0.00319579
1704703686676023,0.02394202,-0.46447513,10.34774017,0.29720879,-0.18855180,0.01384844
1704703686678181,0.00957681,-0.46926352,10.34774017,0.25566345,-0.20026971,0.03302320
1704703686680030,0.00478840,-0.46447513,10.34774017,0.21411815,-0.18109496,0.02982740
1704703686682002,-0.01915361,-0.46447513,10.33816338,0.17683390,-0.14274544,0.02450108
1704703686684003,-0.03351882,-0.46447513,10.36210537,0.14061491,-0.12996227,0.03408846
1704703686686020,-0.03830723,-0.45489833,10.36210537,0.08948221,-0.12889700,0.02450108
1704703686688053,-0.06224924,-0.45489833,10.35731697,0.05219796,-0.13315806,0.01917476
1704703686690057,-0.06224924,-0.44053310,10.35252857,0.03941479,-0.15339808,-0.00106526
1704703686692061,-0.06703765,-0.42616791,10.31422138,0.01278317,-0.17257284,0.00319579
1704703686694017,-0.07182605,-0.41659111,10.27112484,-0.02769688,-0.18961707,0.00532632
1704703686696056,-0.05746084,-0.39743748,10.23760605,-0.05858954,-0.20346551,0.01491370
1704703686698009,-0.06703765,-0.38786069,10.19929886,-0.08948221,-0.20026971,0.00532632
1704703686700033,-0.06224924,-0.37349546,10.16099167,-0.11504856,-0.19174761,0.02237055
1704703686702008,-0.05746084,-0.35434186,10.14183807,-0.16511598,-0.17896442,0.02663161
1704703686704036,-0.07182605,-0.33997664,10.12747288,-0.20453078,-0.16085494,0.02024002
1704703686706024,-0.06224924,-0.30645782,10.11310768,-0.22157501,-0.12463594,0.00532632
1704703686708008,-0.06703765,-0.30166942,10.10831928,-0.24394555,-0.11398330,0.00958738
1704703686709986,-0.08140286,-0.28251579,10.09395409,-0.30040458,-0.10333065,0.00319579
1704703686712024,-0.07182605,-0.26336220,10.06043530,-0.36218992,-0.10120012,-0.00532632
1704703686714029,-0.07661445,-0.25857377,10.05085850,-0.38136467,-0.09161274,-0.01065264
1704703686716055,-0.07661445,-0.23942018,10.00776291,-0.41545314,-0.07563377,-0.00532632
1704703686717995,-0.06703765,-0.23463176,9.96945572,-0.45699844,-0.08096009,-0.02663161
1704703686720069,-0.07661445,-0.22505496,9.95509052,-0.49108690,-0.07776430,-0.03195793
1704703686722016,-0.06703765,-0.21068975,9.90720654,-0.50813115,-0.05858954,-0.03941479
1704703686724000,-0.07182605,-0.21068975,9.86889935,-0.52517539,-0.02237055,-0.04687164
1704703686726023,-0.07661445,-0.19153613,9.86411095,-0.53476274,-0.00319579,-0.04048005
1704703686728020,-0.05746084,-0.17717093,9.81622696,-0.54115433,0.01278317,-0.03621899
1704703686730075,-0.08140286,-0.17717093,9.80186176,-0.55713332,0.06604639,-0.03941479
1704703686732126,-0.08619126,-0.15801731,9.80665016,-0.55713332,0.09906960,-0.01597897
1704703686734028,-0.08140286,-0.14844051,9.76834297,-0.54115433,0.10652644,0.00426106
1704703686736029,-0.10055647,-0.12449849,9.76355457,-0.53263223,0.13528858,0.00319579
1704703686738084,-0.10055647,-0.11013328,9.76834297,-0.50706589,0.16298546,0.01171791
1704703686740030,-0.10055647,-0.09576806,9.73003578,-0.48363006,0.17470337,0.02556635
1704703686741973,-0.11013328,-0.06224924,9.73961258,-0.48895636,0.18961707,0.03302320
1704703686744007,-0.10534488,-0.05267244,9.74440098,-0.46019423,0.19920444,0.03195793
1704703686746081,-0.11013328,-0.02873042,9.71567059,-0.39627838,0.20346551,0.03941479
1704703686747992,-0.11492168,0.00000000,9.73482418,-0.36218992,0.24288028,0.03515373
1704703686749996,-0.10534488,0.00478840,9.73961258,-0.34940675,0.26312032,0.05006743
1704703686751985,-0.10534488,0.03830723,9.72524738,-0.29188246,0.25459820,0.03834952
1704703686754059,-0.11013328,0.05746084,9.74440098,-0.25140241,0.28122982,0.03834952
1704703686756039,-0.09097967,0.08140286,9.73482418,-0.21518342,0.29294771,0.02876214
1704703686758020,-0.09097967,0.10055647,9.74440098,-0.18855180,0.26418558,0.03515373
1704703686760027,-0.09097967,0.10055647,9.76834297,-0.14700650,0.27057716,0.03728426
1704703686762056,-0.07661445,0.10534488,9.77791977,-0.12037488,0.28655612,0.03408846
1704703686764040,-0.07182605,0.14365210,9.79228497,-0.07456851,0.26098979,0.03302320
1704703686766024,-0.06224924,0.13886370,9.80186176,-0.03089267,0.25779399,0.04900216
1704703686767994,-0.04788403,0.15801731,9.82101536,0.02024002,0.27164242,0.03089267
1704703686770058,-0.03830723,0.18195933,9.84974575,0.06924219,0.24607609,0.03089267
1704703686772063,-0.01915361,0.17717093,9.87368774,0.09906960,0.21518342,0.02343582
1704703686774009,0.00000000,0.19632454,9.91199493,0.13528858,0.21198763,0.00852212
1704703686776034,0.00957681,0.19632454,9.94072533,0.18748654,0.19600865,-0.00426106
1704703686778064,0.03351882,0.19632454,9.95509052,0.20879182,0.18322548,0.00106526
1704703686780059,0.05746084,0.21068975,9.99818611,0.20346551,0.16405073,0.00213053
1704703686782005,0.06703765,0.19632454,10.02212811,0.25140241,0.14381070,-0.00852212
1704703686784022,0.08619126,0.19632454,10.05085850,0.29081720,0.14700650,-0.02130529
1704703686786011,0.10534488,0.19632454,10.08437729,0.30253509,0.13315806,-0.00319579
1704703686788062,0.11492168,0.18674773,10.09395409,0.30999196,0.11930962,-0.01384844
1704703686790079,0.12928689,0.19153613,10.12747288,0.32916671,0.10759171,-0.01810949
1704703686791969,0.13886370,0.17238252,10.14662647,0.33768883,0.09800433,-0.02876214
1704703686794031,0.14844051,0.16759412,10.16578007,0.34088463,0.09054748,-0.03195793
1704703686796115,0.15322891,0.16759412,10.17535686,0.34514567,0.07882957,-0.02769688
1704703686798341,0.15801731,0.13886370,10.17535686,0.36325517,0.07669904,-0.02450108
1704703686800031,0.16280572,0.13886370,10.19929886,0.37390780,0.05326322,-0.02876214
1704703686802012,0.16759412,0.12928689,10.19929886,0.36858150,0.02876214,-0.03408846
1704703686804030,0.16280572,0.10534488,10.19929886,0.34834146,0.01384844,-0.03195793
1704703686806060,0.15801731,0.10534488,10.21845245,0.36218992,0.00213053,-0.02024002
1704703686808025,0.16759412,0.08140286,10.21845245,0.36645097,-0.00213053,-0.01917476
1704703686810060,0.15801731,0.07182605,10.20887566,0.34727621,-0.03089267,-0.00745685
1704703686812004,0.16280572,0.07182605,10.23281765,0.33449304,-0.04474111,0.00106526
1704703686814063,0.15801731,0.03830723,10.23281765,0.33555830,-0.04900216,-0.00213053
1704703686816024,0.14365210,0.03830723,10.23281765,0.32597092,-0.05539375,0.00958738
1704703686817994,0.14844051,0.02873042,10.25197124,0.30999196,-0.06285060,0.02024002
1704703686820027,0.13407530,0.00478840,10.24718285,0.29081720,-0.08522116,0.02237055
1704703686822024,0.12449849,0.00957681,10.27112484,0.26738137,-0.09906960,0.00745685
1704703686824004,0.12449849,-0.01915361,10.29027843,0.24394555,-0.09693906,0.01491370
1704703686826070,0.10534488,-0.02873042,10.29027843,0.23542345,-0.11398330,0.02450108
1704703686828030,0.10055647,-0.02873042,10.31422138,0.22583605,-0.12250541,0.02769688
1704703686830008,0.09576806,-0.06224924,10.32858658,0.20133498,-0.12037488,0.01491370
1704703686832002,0.08619126,-0.05746084,10.33337498,0.16724652,-0.13422331,0.02237055
1704703686834003,0.09097967,-0.07661445,10.37168217,0.12037488,-0.14913702,0.02982740
1704703686835999,0.08140286,-0.10534488,10.38125896,0.09054748,-0.16192019,0.03834952
1704703686838117,0.08140286,-0.10534488,10.42435455,0.05645901,-0.15339808,0.02237055
1704703686840041,0.08140286,-0.12928689,10.43871975,0.02556635,-0.15339808,0.01704423
1704703686842083,0.07661445,-0.13407530,10.44829655,-0.01384844,-0.16405073,0.00639159
1704703686844040,0.08619126,-0.13886370,10.48660374,-0.03621899,-0.17150757,-0.00639159
1704703686846084,0.08619126,-0.16759412,10.51054573,-0.05965481,-0.16724652,-0.01704423
1704703686848060,0.08140286,-0.15322891,10.52012253,-0.09161274,-0.13954964,-0.03089267
1704703686850010,0.08619126,-0.17238252,10.56321812,-0.12250541,-0.14381070,-0.03408846
1704703686852013,0.08140286,-0.17717093,10.56800652,-0.13741912,-0.15446334,-0.03408846
1704703686854031,0.08140286,-0.16759412,10.58716011,-0.16085494,-0.14700650,-0.03195793
1704703686856039,0.07661445,-0.18674773,10.63025570,-0.16937704,-0.13741912,-0.03515373
1704703686858045,0.06703765,-0.16759412,10.62067890,-0.18429075,-0.11930962,-0.03834952
1704703686860030,0.05746084,-0.16759412,10.64940929,-0.21518342,-0.10120012,-0.04900216
1704703686861976,0.05267244,-0.16759412,10.67335129,-0.22796659,-0.08841695,-0.04474111
1704703686864074,0.03830723,-0.14844051,10.66856289,-0.23968449,-0.06072007,-0.05113269
1704703686866056,0.02873042,-0.16280572,10.70208168,-0.24714135,-0.04474111,-0.03302320
1704703686868024,0.01436521,-0.13886370,10.70687008,-0.25353295,-0.04367584,-0.02237055
1704703686870057,0.00957681,-0.12928689,10.70687008,-0.24074976,-0.03302320,-0.01597897
1704703686872031,-0.00478840,-0.13407530,10.73081207,-0.23222765,0.00639159,-0.01597897
1704703686873994,-0.01436521,-0.10534488,10.72123528,-0.24820662,0.01171791,-0.00745685
1704703686876067,-0.01915361,-0.11492168,10.73081207,-0.26631612,0.00000000,-0.00426106
1704703686878018,-0.03351882,-0.10055647,10.74996567,-0.26205504,0.01810949,-0.00106526
1704703686880267,-0.03830723,-0.08619126,10.74038887,-0.25033715,0.05645901,-0.00852212
1704703686882020,-0.05267244,-0.08140286,10.75475407,-0.24501082,0.07882957,0.00106526
1704703686884011,-0.05267244,-0.06703765,10.74996567,-0.23968449,0.07243798,0.00106526
1704703686886093,-0.05267244,-0.06703765,10.74517727,-0.23222765,0.07882957,0.01384844
1704703686888055,-0.07182605,-0.06224924,10.76911926,-0.22370553,0.09906960,0.01704423
1704703686890059,-0.07182605,-0.04309563,10.75954247,-0.22157501,0.11930962,0.02876214
1704703686892091,-0.06703765,-0.04788403,10.76433086,-0.20133498,0.12250541,0.03302320
1704703686894004,-0.08140286,-0.02873042,10.77390766,-0.18535601,0.13954964,0.02769688
1704703686896069,-0.06703765,-0.01915361,10.76433086,-0.16405073,0.15126754,0.02982740
1704703686898074,-0.07661445,-0.01436521,10.78348446,-0.13954964,0.16405073,0.03621899
1704703686900027,-0.07661445,0.00478840,10.77869606,-0.12996227,0.16405073,0.04048005
1704703686902022,-0.06224924,0.00957681,10.76911926,-0.11930962,0.16085494,0.04154531
1704703686904029,-0.07182605,0.02394202,10.78348446,-0.07776430,0.17150757,0.02556635
1704703686906076,-0.06224924,0.03351882,10.75954247,-0.05113269,0.18002969,0.02663161
1704703686908056,-0.05267244,0.03830723,10.74996567,-0.07669904,0.16937704,0.03621899
1704703686910006,-0.06224924,0.04788403,10.75475407,-0.05113269,0.15872440,0.02556635
1704703686911976,-0.04309563,0.05746084,10.72602367,-0.00745685,0.16298546,0.01704423
1704703686914076,-0.04788403,0.06224924,10.72602367,0.02343582,0.16724652,0.02663161
1704703686916048,-0.03830723,0.07661445,10.71165848,0.02237055,0.15978967,0.03621899
1704703686917989,-0.01436521,0.08619126,10.68771648,0.04474111,0.13954964,0.02876214
1704703686920031,-0.02873042,0.09097967,10.69250488,0.10013486,0.14487596,0.01810949
1704703686922034,-0.00957681,0.10055647,10.66856289,0.12250541,0.13954964,0.02343582
1704703686924125,0.00000000,0.11492168,10.65898609,0.12889700,0.11824435,0.02982740
1704703686926057,-0.00478840,0.11971009,10.65898609,0.13848437,0.10333065,0.01810949
1704703686928020,0.01915361,0.12928689,10.62067890,0.15233281,0.11398330,-0.00639159
1704703686930099,0.01436521,0.12928689,10.62546730,0.16937704,0.11078750,-0.00106526
1704703686932005,0.01915361,0.12928689,10.61589050,0.18216021,0.08735169,0.01065264
1704703686934091,0.03351882,0.14365210,10.59194851,0.18535601,0.08628642,0.00319579
1704703686936029,0.01915361,0.12449849,10.60152531,0.20026971,0.08948221,-0.01065264
1704703686938063,0.04309563,0.12928689,10.55842972,0.20346551,0.09161274,-0.01491370
1704703686940060,0.04309563,0.14365210,10.54885292,0.19813919,0.07137272,-0.00639159
1704703686942015,0.03830723,0.11492168,10.55364132,0.21518342,0.05539375,-0.01491370
1704703686944008,0.05746084,0.11971009,10.52012253,0.22796659,0.05219796,-0.02130529
1704703686946024,0.04788403,0.11492168,10.53927612,0.22690132,0.03089267,-0.01065264
1704703686948070,0.06224924,0.09576806,10.52012253,0.21944447,0.01171791,-0.01171791
1704703686950069,0.07182605,0.11013328,10.50575733,0.23755397,0.00213053,-0.01491370
1704703686951996,0.06224924,0.07661445,10.52969933,0.24394555,0.00426106,-0.01597897
1704703686954103,0.08140286,0.07182605,10.49618053,0.24074976,-0.01917476,-0.00319579
1704703686955957,0.07182605,0.07661445,10.50575733,0.21305288,-0.04154531,0.00852212
1704703686958076,0.07661445,0.04309563,10.51054573,0.22903186,-0.03941479,0.00532632
1704703686960041,0.08140286,0.05267244,10.48181534,0.23329291,-0.03302320,0.00639159
1704703686961949,0.06703765,0.03351882,10.51054573,0.21305288,-0.04261058,0.01384844
1704703686964051,0.08140286,0.01436521,10.49139214,0.18535601,-0.07243798,0.02024002
1704703686966074,0.07182605,0.02394202,10.47702694,0.20453078,-0.07563377,0.01384844
1704703686968041,0.06703765,-0.00957681,10.48660374,0.21092236,-0.04900216,0.00106526
1704703686970058,0.08619126,-0.00957681,10.44350815,0.17683390,-0.06178534,0.00319579
1704703686972033,0.07182605,-0.01436521,10.45787334,0.14381070,-0.10439591,0.00958738
1704703686974061,0.08140286,-0.04309563,10.44829655,0.13741912,-0.10652644,-0.00106526
1704703686976084,0.08140286,-0.03351882,10.41477776,0.12250541,-0.08522116,-0.01065264
1704703686978057,0.07182605,-0.04788403,10.42914295,0.09693906,-0.09054748,-0.01704423
1704703686980094,0.09097967,-0.05746084,10.39562416,0.06604639,-0.10972223,-0.01278317
1704703686982026,0.07661445,-0.05267244,10.38604736,0.06817693,-0.10865697,-0.01065264
1704703686984034,0.07182605,-0.07182605,10.39562416,0.06817693,-0.09693906,-0.01065264
1704703686986034,0.08140286,-0.07182605,10.35731697,0.04474111,-0.10120012,-0.00958738
1704703686988037,0.06703765,-0.07182605,10.37168217,0.02769688,-0.10759171,-0.00639159
1704703686990102,0.07661445,-0.08619126,10.35252857,0.03621899,-0.11185277,0.00106526
1704703686992034,0.07182605,-0.07661445,10.32858658,0.03408846,-0.10226539,-0.00106526
1704703686994015,0.06224924,-0.07661445,10.35731697,0.00532632,-0.09374327,0.00213053
1704703686996093,0.07182605,-0.08619126,10.33816338,-0.00426106,-0.10546118,0.01704423
1704703686998073,0.05746084,-0.08140286,10.33337498,0.00532632,-0.10546118,0.01278317
1704703686999943,0.05746084,-0.08140286,10.33816338,0.01704423,-0.07989483,0.01278317
1704703687002011,0.05746084,-0.08140286,10.31900978,-0.00319579,-0.06711166,0.00745685
1704703687004031,0.03830723,-0.07661445,10.33337498,-0.01810949,-0.07350325,0.00852212
1704703687006079,0.04788403,-0.07182605,10.32858658,-0.02237055,-0.07563377,0.01278317
1704703687008062,0.03830723,-0.07182605,10.30943298,-0.00532632,-0.05858954,0.01171791
1704703687010075,0.02873042,-0.06224924,10.31422138,-0.00213053,-0.03408846,0.00532632
1704703687012006,0.03830723,-0.06224924,10.29985619,-0.02769688,-0.03941479,0.00639159
1704703687014078,0.02394202,-0.05746084,10.29985619,-0.04900216,-0.04474111,0.01171791
1704703687016083,0.02394202,-0.05746084,10.30464458,-0.03941479,-0.05113269,0.00639159
1704703687018052,0.02873042,-0.06224924,10.28549004,-0.04154531,-0.03621899,0.00958738
1704703687020035,0.01915361,-0.04788403,10.28549004,-0.05752428,-0.02237055,0.01065264
1704703687022013,0.02873042,-0.04788403,10.29027843,-0.06178534,-0.03089267,0.00213053
1704703687024063,0.02394202,-0.05267244,10.28070164,-0.06072007,-0.02450108,0.00106526
1704703687026071,0.02394202,-0.04309563,10.28549004,-0.06711166,-0.01278317,0.01065264
1704703687028059,0.02873042,-0.04309563,10.28070164,-0.06924219,-0.00745685,0.01597897
1704703687030054,0.01915361,-0.04788403,10.27591324,-0.06604639,0.00106526,0.01384844
1704703687031956,0.02394202,-0.03830723,10.28070164,-0.07137272,0.01384844,0.01704423
1704703687034093,0.02394202,-0.04788403,10.27591324,-0.07137272,0.01917476,0.01491370
1704703687036028,0.01436521,-0.04309563,10.27591324,-0.07030746,0.00532632,0.02024002
1704703687038001,0.01915361,-0.03830723,10.27591324,-0.06498113,0.01384844,0.01810949
1704703687040103,0.00957681,-0.04788403,10.27112484,-0.07776430,0.02769688,0.01171791
1704703687042069,0.00478840,-0.03830723,10.26154804,-0.07882957,0.02982740,0.00213053
1704703687044051,0.00478840,-0.03830723,10.26154804,-0.06711166,0.02876214,0.00639159
1704703687046050,-0.00478840,-0.04309563,10.26154804,-0.03728426,0.02769688,0.01704423
1704703687048089,0.00000000,-0.02394202,10.25197124,-0.03941479,0.02769688,0.01491370
1704703687050108,0.00000000,-0.02873042,10.25197124,-0.04048005,0.03195793,0.01065264
1704703687052109,-0.00478840,-0.01915361,10.24718285,-0.03195793,0.03515373,0.00639159
1704703687054032,-0.00478840,-0.00957681,10.23760605,-0.00958738,0.03834952,0.01065264
1704703687056062,-0.00478840,-0.01436521,10.23760605,-0.02024002,0.02982740,0.00639159
1704703687058100,-0.00478840,0.00478840,10.22802925,-0.02130529,0.02556635,0.00852212
1704703687060023,-0.00478840,0.00957681,10.22802925,-0.01171791,0.03195793,0.00106526
1704703687062017,-0.00478840,0.00478840,10.22324085,-0.00852212,0.04261058,-0.01171791
1704703687064106,0.00000000,0.02394202,10.20887566,-0.01065264,0.03408846,-0.01065264
1704703687066067,0.00478840,0.01915361,10.21845245,-0.00426106,0.01597897,-0.00852212
1704703687068042,0.00478840,0.01915361,10.20887566,0.01171791,0.02343582,-0.00639159
1704703687070094,0.01436521,0.03830723,10.19929886,0.01491370,0.03621899,-0.01171791
1704703687071992,0.01915361,0.02873042,10.20408726,0.01810949,0.03515373,-0.00426106
1704703687074108,0.02873042,0.04309563,10.18972206,0.02024002,0.02769688,-0.01065264
1704703687076072,0.02873042,0.05267244,10.19451046,0.04154531,0.02982740,-0.02450108
1704703687078031,0.03351882,0.04309563,10.19451046,0.05752428,0.02450108,-0.02450108
1704703687080078,0.04309563,0.06224924,10.18014526,0.06072007,0.01597897,-0.02237055
1704703687081937,0.04309563,0.05746084,10.19451046,0.07137272,0.02556635,-0.03089267
1704703687084054,0.05267244,0.05267244,10.18972206,0.09480853,0.02556635,-0.03302320
1704703687086077,0.05746084,0.07182605,10.19451046,0.10439591,0.01065264,-0.03408846
1704703687088172,0.06224924,0.06224924,10.21845245,0.11078750,0.00106526,-0.03834952
1704703687090110,0.07182605,0.07182605,10.21366405,0.12144014,0.00958738,-0.04367584
1704703687092051,0.07182605,0.08140286,10.22802925,0.12570120,0.00319579,-0.04261058
1704703687094049,0.08619126,0.06703765,10.24239445,0.13741912,-0.01171791,-0.04687164
1704703687096032,0.09097967,0.08140286,10.24239445,0.13102752,-0.02663161,-0.05645901
1704703687098092,0.09097967,0.06703765,10.27112484,0.12570120,-0.02982740,-0.04687164
1704703687100061,0.10534488,0.05746084,10.27112484,0.13209279,-0.03195793,-0.04367584
1704703687101990,0.10055647,0.06703765,10.27591324,0.14381070,-0.03621899,-0.02450108
1704703687104030,0.11013328,0.04788403,10.30464458,0.12357067,-0.04048005,-0.02343582
1704703687106063,0.12449849,0.04788403,10.29506683,0.10865697,-0.04900216,-0.01704423
1704703687108057,0.11492168,0.03830723,10.32379818,0.12144014,-0.05752428,-0.01171791
1704703687110059,0.12928689,0.01436521,10.33816338,0.12996227,-0.06924219,-0.00532632
1704703687112009,0.12928689,0.01915361,10.33337498,0.10546118,-0.06817693,-0.00745685
1704703687114017,0.12928689,-0.00478840,10.37168217,0.08202536,-0.06498113,0.00532632
1704703687116070,0.14844051,-0.01915361,10.37647057,0.08096009,-0.06604639,0.01384844
1704703687118083,0.12928689,-0.02873042,10.39083576,0.08415589,-0.06604639,0.00958738
1704703687120001,0.13886370,-0.05267244,10.42914295,0.06391586,-0.07030746,0.01065264
1704703687122029,0.14365210,-0.05746084,10.42914295,0.04474111,-0.07563377,0.00958738
1704703687124071,0.12449849,-0.06703765,10.46266174,0.03195793,-0.06924219,0.00639159
1704703687126017,0.14844051,-0.08619126,10.47702694,0.02343582,-0.05965481,-0.00745685
1704703687128018,0.13407530,-0.08619126,10.48181534,0.00852212,-0.07243798,0.00000000
1704703687130061,0.12928689,-0.09576806,10.52012253,0.00426106,-0.08415589,0.00213053
1704703687132194,0.14365210,-0.11013328,10.52491093,0.00852212,-0.07563377,-0.00213053
1704703687134194,0.11971009,-0.11013328,10.53927612,0.01065264,-0.06817693,-0.00319579
1704703687136030,0.13407530,-0.11492168,10.55842972,0.00319579,-0.07243798,-0.00958738
1704703687138079,0.12928689,-0.11971009,10.55364132,0.00106526,-0.08948221,-0.01171791
1704703687140046,0.11492168,-0.11492168,10.58716011,0.01278317,-0.08948221,-0.00852212
1704703687142024,0.12928689,-0.11971009,10.59194851,0.01810949,-0.08096009,-0.00639159
1704703687144041,0.11013328,-0.11971009,10.59673691,0.01278317,-0.09054748,-0.00426106
1704703687146006,0.11971009,-0.11492168,10.61589050,0.01065264,-0.08522116,-0.00106526
1704703687148077,0.12928689,-0.12449849,10.61110210,0.00639159,-0.08096009,0.00106526
1704703687150176,0.11013328,-0.11971009,10.63025570,0.00213053,-0.08841695,-0.00106526
1704703687151994,0.12928689,-0.11492168,10.63983250,-0.00319579,-0.09800433,0.00426106
1704703687154052,0.12449849,-0.12449849,10.63025570,-0.01384844,-0.09800433,0.00106526
1704703687156049,0.12449849,-0.11013328,10.64462090,-0.01491370,-0.08948221,0.00106526
1704703687158048,0.14365210,-0.11492168,10.63983250,-0.02237055,-0.09267800,-0.00639159
1704703687160058,0.12928689,-0.11492168,10.63983250,-0.03834952,-0.09906960,0.00745685
1704703687162021,0.13886370,-0.10055647,10.64940929,-0.04474111,-0.10865697,-0.00319579
1704703687164089,0.13886370,-0.11492168,10.63983250,-0.05113269,-0.11078750,0.00000000
1704703687166070,0.12928689,-0.10055647,10.64462090,-0.04474111,-0.10120012,-0.00745685
1704703687168079,0.14844051,-0.10055647,10.64462090,-0.04793690,-0.11078750,-0.00852212
1704703687170004,0.13886370,-0.11013328,10.63983250,-0.06604639,-0.11824435,-0.01384844
1704703687172006,0.13886370,-0.09097967,10.64462090,-0.08202536,-0.11504856,-0.00745685
1704703687174079,0.14844051,-0.10534488,10.63983250,-0.07563377,-0.11398330,-0.01171791
1704703687176230,0.13407530,-0.10055647,10.62546730,-0.06924219,-0.11078750,-0.00852212
1704703687178077,0.14844051,-0.09097967,10.62546730,-0.09054748,-0.10865697,-0.00745685
1704703687180144,0.14365210,-0.11013328,10.62067890,-0.10120012,-0.11824435,-0.00426106
1704703687182106,0.13407530,-0.09097967,10.61110210,-0.08309063,-0.12037488,-0.00106526
1704703687184077,0.14365210,-0.10055647,10.60631371,-0.06391586,-0.10865697,-0.00213053
1704703687186034,0.13407530,-0.10055647,10.59194851,-0.06604639,-0.10972223,-0.00213053
1704703687188039,0.13886370,-0.07661445,10.58237171,-0.08096009,-0.11504856,-0.00745685
1704703687190186,0.13886370,-0.09576806,10.57758331,-0.07350325,-0.11504856,-0.00958738
1704703687192015,0.12449849,-0.07661445,10.55842972,-0.06072007,-0.10759171,-0.00639159
1704703687194151,0.12928689,-0.06703765,10.55842972,-0.07776430,-0.10972223,0.00000000
1704703687196009,0.12449849,-0.08140286,10.54885292,-0.09800433,-0.11504856,-0.00532632
1704703687198071,0.12449849,-0.06703765,10.53927612,-0.09161274,-0.11291803,-0.00426106
1704703687200072,0.12449849,-0.07182605,10.53448772,-0.07882957,-0.10865697,-0.00639159
1704703687201990,0.11971009,-0.06703765,10.51533413,-0.09480853,-0.10865697,-0.00213053
1704703687204059,0.11971009,-0.05267244,10.50575733,-0.10759171,-0.11398330,-0.00745685
1704703687206091,0.11971009,-0.06703765,10.50575733,-0.10120012,-0.10333065,-0.00319579
1704703687208046,0.11971009,-0.04309563,10.47223854,-0.09374327,-0.08522116,-0.00319579
1704703687210117,0.12449849,-0.04309563,10.47223854,-0.09054748,-0.08735169,0.00426106
1704703687212015,0.11971009,-0.05267244,10.46745014,-0.10013486,-0.08735169,0.00319579
1704703687213950,0.11971009,-0.03830723,10.44829655,-0.09267800,-0.08415589,0.00106526
1704703687216098,0.11971009,-0.04309563,10.44829655,-0.07776430,-0.06285060,-0.00639159
1704703687218102,0.11971009,-0.03351882,10.41956615,-0.07243798,-0.06498113,0.00000000
1704703687220104,0.12449849,-0.02394202,10.40998936,-0.07882957,-0.06604639,0.00213053
1704703687222022,0.12449849,-0.04309563,10.41956615,-0.06817693,-0.06285060,-0.00106526
1704703687224077,0.12449849,-0.03351882,10.40041256,-0.05326322,-0.05858954,-0.00106526
1704703687226083,0.12449849,-0.02873042,10.38125896,-0.04580637,-0.05858954,-0.00426106
1704703687228031,0.12449849,-0.03351882,10.38125896,-0.04154531,-0.05965481,-0.00639159
1704703687230206,0.13407530,-0.01436521,10.34295177,-0.03728426,-0.06391586,-0.01704423
1704703687232018,0.13407530,-0.02394202,10.34295177,-0.02769688,-0.05965481,-0.01597897
1704703687234054,0.13407530,-0.01915361,10.33337498,-0.01171791,-0.05645901,-0.01491370
1704703687236061,0.13886370,0.00000000,10.29506683,-0.00319579,-0.06285060,-0.01384844
1704703687238032,0.13407530,-0.00957681,10.30464458,-0.00106526,-0.06178534,-0.01384844
1704703687240046,0.13886370,-0.00478840,10.28549004,-0.00852212,-0.05113269,-0.01384844
1704703687242102,0.13886370,0.00478840,10.26154804,0.00319579,-0.05113269,-0.00639159
1704703687244079,0.13886370,-0.00957681,10.27591324,-0.00426106,-0.06391586,-0.00639159
1704703687246013,0.14365210,0.00478840,10.24239445,-0.00958738,-0.06924219,-0.00745685
1704703687248128,0.13407530,-0.00478840,10.24718285,0.00319579,-0.05965481,-0.01065264
1704703687250100,0.14365210,-0.00478840,10.23281765,0.00958738,-0.05858954,-0.01065264
1704703687252018,0.14844051,-0.00478840,10.21845245,0.00319579,-0.06924219,-0.01171791
1704703687254062,0.13886370,-0.02394202,10.24239445,-0.00852212,-0.09054748,-0.01384844
1704703687256046,0.14365210,-0.01915361,10.22802925,0.00000000,-0.08841695,-0.01597897
1704703687258192,0.14365210,-0.01915361,10.21845245,0.00106526,-0.08096009,-0.01384844
1704703687260066,0.14844051,-0.02873042,10.22802925,-0.00106526,-0.09906960,-0.01384844
1704703687262057,0.15322891,-0.02394202,10.20887566,-0.00106526,-0.10759171,-0.00958738
1704703687264020,0.14844051,-0.03830723,10.21366405,-0.00852212,-0.11824435,-0.00852212
1704703687266085,0.15322891,-0.03830723,10.22802925,-0.02130529,-0.12037488,-0.00426106
1704703687268110,0.15801731,-0.03830723,10.20887566,-0.02343582,-0.12037488,-0.00532632
1704703687270106,0.15322891,-0.05746084,10.22802925,-0.01597897,-0.11824435,-0.00213053
1704703687272000,0.16280572,-0.04788403,10.21366405,-0.02663161,-0.11824435,-0.01597897
1704703687274098,0.15801731,-0.05746084,10.20887566,-0.04048005,-0.11611383,-0.01491370
1704703687276101,0.15801731,-0.06703765,10.23281765,-0.03621899,-0.11078750,-0.00745685
1704703687278024,0.15801731,-0.05746084,10.21366405,-0.03621899,-0.10972223,0.00000000
1704703687280051,0.14365210,-0.07182605,10.22324085,-0.04900216,-0.10226539,-0.00426106
1704703687282026,0.14844051,-0.05746084,10.22802925,-0.06178534,-0.09374327,0.00745685
1704703687284033,0.14365210,-0.06224924,10.21366405,-0.05539375,-0.09161274,0.00532632
1704703687286085,0.13407530,-0.07182605,10.23281765,-0.05539375,-0.09587380,0.00319579
1704703687288037,0.13886370,-0.05746084,10.22324085,-0.05326322,-0.09480853,0.00958738
1704703687290053,0.12449849,-0.06703765,10.21845245,-0.04793690,-0.08628642,0.01810949
1704703687292142,0.11971009,-0.05267244,10.22324085,-0.02769688,-0.07669904,0.01491370
1704703687294066,0.11492168,-0.05267244,10.21845245,-0.02130529,-0.07456851,0.01704423
1704703687296165,0.10534488,-0.06224924,10.22802925,-0.03089267,-0.07350325,0.01597897
1704703687298058,0.09576806,-0.03351882,10.22324085,-0.02237055,-0.07030746,0.01384844
1704703687300097,0.08619126,-0.04309563,10.21845245,-0.01065264,-0.06285060,0.01278317
1704703687302033,0.08140286,-0.03830723,10.23281765,-0.00852212,-0.04687164,0.02024002
1704703687304133,0.07661445,-0.01915361,10.22802925,-0.01278317,-0.04580637,0.01491370
1704703687306050,0.06703765,-0.03351882,10.22802925,-0.01810949,-0.05326322,0.01278317
1704703687308075,0.06703765,-0.01915361,10.24239445,-0.02130529,-0.05432849,0.00532632
1704703687310053,0.05746084,-0.01436521,10.23760605,-0.02450108,-0.04154531,0.00532632
1704703687312039,0.05267244,-0.02394202,10.24718285,-0.02130529,-0.03728426,0.00639159
1704703687314023,0.05267244,-0.00478840,10.25675964,-0.02769688,-0.04048005,0.00532632
1704703687316100,0.04788403,-0.01915361,10.25675964,-0.04048005,-0.04261058,-0.00319579
1704703687318083,0.04788403,-0.00957681,10.26633644,-0.02982740,-0.04474111,-0.00639159
1704703687320050,0.04309563,0.00000000,10.27112484,-0.01810949,-0.04154531,0.00106526
1704703687322023,0.04309563,-0.01915361,10.28070164,-0.02663161,-0.04793690,0.00000000
1704703687324045,0.04788403,0.00478840,10.29027843,-0.02556635,-0.04900216,-0.00213053
1704703687326077,0.04788403,-0.00478840,10.30464458,-0.01384844,-0.04687164,0.00532632
1704703687328039,0.05267244,-0.01436521,10.30943298,-0.01171791,-0.04367584,0.00958738
1704703687330099,0.04788403,-0.00478840,10.33816338,-0.01917476,-0.04261058,0.01704423
1704703687332027,0.05267244,-0.01436521,10.33816338,-0.02024002,-0.04367584,0.01597897
1704703687334155,0.06224924,0.00000000,10.34295177,-0.02024002,-0.03834952,0.01171791
1704703687336079,0.05746084,-0.01915361,10.36210537,-0.02769688,-0.03302320,0.00639159
1704703687338078,0.06224924,-0.02394202,10.35731697,-0.02982740,-0.03621899,0.00426106
1704703687340046,0.06224924,0.00000000,10.36689377,-0.04474111,-0.03728426,0.00639159
1704703687342083,0.05746084,-0.02394202,10.38125896,-0.04793690,-0.02556635,-0.00213053
1704703687344037,0.06703765,-0.02873042,10.36689377,-0.04367584,-0.01597897,0.00106526
1704703687346086,0.05746084,-0.01436521,10.38125896,-0.03089267,-0.01597897,0.00958738
1704703687348016,0.06703765,-0.04309563,10.38604736,-0.02876214,-0.01278317,0.00958738
1704703687350261,0.06224924,-0.02394202,10.38125896,-0.02343582,-0.00106526,0.01278317
1704703687352043,0.05267244,-0.02873042,10.40998936,-0.01171791,0.00639159,0.01384844
1704703687354025,0.06703765,-0.03830723,10.39562416,0.00213053,0.00852212,0.01597897
1704703687356019,0.05746084,-0.00957681,10.40041256,0.00319579,0.01597897,0.01384844
1704703687358093,0.05746084,-0.03351882,10.41956615,0.00639159,0.02663161,0.01065264
1704703687360110,0.06224924,-0.01915361,10.40520096,0.01065264,0.02769688,0.00958738
1704703687362050,0.05267244,-0.00957681,10.42914295,0.02556635,0.02876214,0.01278317
1704703687364049,0.06703765,-0.02394202,10.42435455,0.03089267,0.03089267,0.00958738
1704703687366023,0.06703765,0.00000000,10.41477776,0.02876214,0.03621899,0.00319579
1704703687368071,0.08140286,-0.01915361,10.43871975,0.02343582,0.04580637,0.01065264
1704703687370080,0.08619126,-0.01436521,10.42435455,0.02556635,0.04154531,0.01278317
1704703687372066,0.07661445,0.00478840,10.43871975,0.01704423,0.03515373,0.01065264
1704703687374072,0.10055647,-0.01436521,10.43871975,0.00319579,0.04793690,0.01065264
1704703687376203,0.09576806,0.00000000,10.43393135,0.00106526,0.04900216,0.00745685
1704703687378063,0.09097967,-0.00478840,10.46745014,0.00319579,0.04687164,0.00426106
1704703687380063,0.11013328,-0.01915361,10.45308495,-0.00106526,0.04261058,0.00852212
1704703687382020,0.10055647,-0.00478840,10.45308495,0.00532632,0.04474111,0.01704423
1704703687384100,0.10055647,-0.01915361,10.48181534,0.00958738,0.04367584,0.01917476
1704703687386068,0.11492168,-0.01915361,10.44829655,-0.00213053,0.05113269,0.01810949
1704703687388061,0.10534488,-0.00957681,10.46745014,-0.01278317,0.05326322,0.01917476
1704703687390175,0.11971009,-0.02394202,10.46745014,-0.00426106,0.04474111,0.01597897
1704703687392023,0.11013328,-0.00957681,10.44350815,0.00639159,0.04793690,0.01917476
1704703687394073,0.10534488,-0.00957681,10.46266174,0.01171791,0.05645901,0.01597897
1704703687396059,0.11971009,-0.01436521,10.43393135,0.01384844,0.04900216,0.02024002
1704703687398121,0.10055647,0.00000000,10.43393135,0.01384844,0.04580637,0.01704423
1704703687400090,0.11013328,-0.00957681,10.43871975,0.01810949,0.04687164,0.01597897
1704703687402081,0.11492168,-0.00478840,10.40520096,0.01491370,0.04154531,0.01597897
1704703687404038,0.10534488,0.00478840,10.41477776,0.00639159,0.03621899,0.01597897
1704703687406075,0.11971009,-0.00478840,10.40041256,0.00532632,0.04048005,0.01065264
1704703687408055,0.11013328,0.00000000,10.37647057,0.01384844,0.04261058,0.01171791
1704703687410010,0.11492168,0.00478840,10.38604736,0.00426106,0.03195793,0.01384844
1704703687412053,0.11971009,0.00000000,10.34774017,-0.00532632,0.02237055,0.01491370
1704703687414047,0.11013328,0.00957681,10.35252857,0.00319579,0.02450108,0.01278317
1704703687416348,0.12449849,0.00000000,10.34774017,0.00639159,0.02876214,0.01704423
1704703687418072,0.12449849,0.00478840,10.31422138,-0.00958738,0.02024002,0.01278317
1704703687420058,0.12449849,0.00957681,10.31900978,-0.00958738,0.01810949,0.01171791
1704703687422031,0.13407530,-0.00957681,10.30464458,-0.01704423,0.01597897,0.01384844
1704703687424061,0.12449849,-0.00478840,10.28549004,-0.02982740,0.01171791,0.01278317
1704703687426117,0.12928689,0.00000000,10.28549004,-0.02343582,0.00745685,0.01491370
1704703687428062,0.12928689,-0.01915361,10.26154804,-0.01065264,0.00852212,0.01491370
1704703687430080,0.12449849,0.00000000,10.24718285,-0.00745685,0.01278317,0.01171791
1704703687432015,0.12928689,-0.00957681,10.24239445,-0.00852212,0.01278317,0.00639159
1704703687434113,0.11971009,-0.01436521,10.21845245,-0.01171791,0.00213053,0.01278317
1704703687436093,0.11971009,0.00957681,10.21366405,-0.00426106,0.00213053,0.00319579
1704703687438142,0.11971009,-0.01436521,10.20408726,-0.00639159,0.00639159,-0.00426106
1704703687440054,0.11492168,0.00000000,10.17535686,0.00958738,0.00106526,-0.00426106
1704703687442082,0.11492168,0.00957681,10.17535686,0.00000000,-0.01278317,-0.00106526
1704703687444067,0.10534488,-0.00957681,10.15620327,-0.00213053,-0.00852212,-0.00958738
1704703687446075,0.10055647,0.02394202,10.13226128,-0.00213053,0.00000000,-0.00532632
1704703687448045,0.09097967,0.00957681,10.12747288,0.00958738,0.00532632,-0.00426106
1704703687450077,0.09097967,0.03351882,10.07958889,0.00106526,-0.00213053,-0.00958738
1704703687452043,0.09097967,0.03830723,10.07958889,0.00106526,-0.00213053,-0.01384844
1704703687454149,0.08140286,0.01436521,10.07480049,0.01065264,-0.00106526,-0.00639159
1704703687456034,0.07661445,0.04788403,10.03649330,0.01278317,0.00106526,-0.01065264
1704703687458076,0.07661445,0.04309563,10.03649330,0.00639159,0.00106526,-0.00852212
1704703687460082,0.07661445,0.02873042,10.02212811,0.01171791,0.00106526,-0.00745685
1704703687462031,0.07661445,0.05746084,9.99818611,0.02982740,0.00319579,-0.01384844
1704703687464041,0.06703765,0.03351882,10.00297451,0.02556635,0.00000000,-0.00852212
1704703687466070,0.07182605,0.04788403,9.97903252,0.02130529,-0.00319579,-0.00106526
1704703687468084,0.06703765,0.05746084,9.96945572,0.02663161,0.00319579,-0.00319579
1704703687470095,0.06224924,0.03351882,9.96945572,0.03728426,0.00319579,-0.00532632
1704703687472024,0.07182605,0.06224924,9.94072533,0.04793690,0.00745685,-0.00532632
1704703687474093,0.05746084,0.05267244,9.95030212,0.05113269,-0.00319579,-0.00319579
1704703687476081,0.06224924,0.05267244,9.94072533,0.06178534,-0.00213053,0.00106526
1704703687478118,0.05267244,0.07182605,9.92157173,0.05858954,0.01171791,0.00745685
1704703687480094,0.04309563,0.05267244,9.94072533,0.05113269,0.01597897,0.00745685
1704703687482126,0.05267244,0.07182605,9.92157173,0.05219796,0.01917476,0.00958738
1704703687484073,0.03830723,0.06703765,9.92157173,0.05113269,0.02130529,0.02024002
1704703687486097,0.03830723,0.05746084,9.92636013,0.04687164,0.02237055,0.01597897
1704703687488096,0.03351882,0.08140286,9.90720654,0.04580637,0.02663161,0.01491370
1704703687490046,0.01915361,0.06224924,9.92157173,0.05326322,0.03834952,0.01704423
1704703687491978,0.03351882,0.07182605,9.91678333,0.05432849,0.03515373,0.01278317
1704703687494107,0.01915361,0.06224924,9.91678333,0.04793690,0.03089267,0.00958738
1704703687496081,0.02873042,0.06703765,9.92157173,0.05539375,0.03195793,0.01810949
1704703687498254,0.02394202,0.06703765,9.91678333,0.07776430,0.04154531,0.01704423
1704703687500074,0.01915361,0.05746084,9.93114853,0.06924219,0.04687164,0.00426106
1704703687502059,0.03351882,0.07182605,9.92157173,0.06072007,0.04474111,0.01278317
1704703687504043,0.02394202,0.05746084,9.92636013,0.07563377,0.04154531,0.01278317
1704703687506091,0.03351882,0.05746084,9.94551373,0.07882957,0.05113269,0.01384844
1704703687508037,0.03830723,0.06224924,9.94551373,0.06285060,0.05752428,0.01278317
1704703687510117,0.03351882,0.05267244,9.95987892,0.05858954,0.05219796,0.02024002
1704703687512046,0.04788403,0.05746084,9.96466732,0.08096009,0.05965481,0.01171791
1704703687514057,0.03830723,0.04309563,9.96945572,0.07137272,0.07563377,0.00213053
1704703687516023,0.04788403,0.04788403,9.98382092,0.05858954,0.06924219,0.00000000
1704703687518072,0.04788403,0.04788403,9.99339771,0.05432849,0.05752428,0.00213053
1704703687520066,0.04309563,0.02873042,9.99818611,0.06924219,0.06924219,0.00000000
1704703687522061,0.05746084,0.03351882,10.01255131,0.06817693,0.08202536,-0.00532632
1704703687524020,0.04788403,0.02873042,10.02691650,0.05752428,0.07350325,-0.00426106
1704703687526096,0.05746084,0.02394202,10.03649330,0.05113269,0.07137272,-0.00745685
1704703687528100,0.05267244,0.01915361,10.06043530,0.06178534,0.07882957,-0.01065264
1704703687530017,0.04788403,0.00957681,10.07001209,0.05432849,0.08309063,-0.01065264
1704703687532127,0.06224924,0.01915361,10.07958889,0.04154531,0.08309063,-0.00958738
1704703687534093,0.05267244,0.00957681,10.10831928,0.04367584,0.08202536,-0.01171791
1704703687536155,0.06224924,0.00957681,10.10831928,0.04793690,0.08522116,-0.01810949
1704703687538064,0.06224924,0.01436521,10.12747288,0.03834952,0.08735169,-0.00639159
1704703687540074,0.05267244,0.00478840,10.14662647,0.04580637,0.08415589,0.00106526
1704703687542012,0.06224924,0.01436521,10.14662647,0.06072007,0.07989483,0.00213053
1704703687544117,0.05746084,0.00957681,10.17056847,0.05645901,0.08841695,-0.00532632
1704703687546077,0.06703765,0.01915361,10.17056847,0.04793690,0.08735169,-0.00426106
1704703687548064,0.07182605,0.01915361,10.18493366,0.04580637,0.07669904,0.00213053
1704703687550022,0.05746084,0.01436521,10.20408726,0.04687164,0.07456851,0.00106526
1704703687552051,0.07182605,0.02394202,10.19929886,0.04580637,0.08096009,-0.00213053
1704703687554085,0.06703765,0.01436521,10.22324085,0.04154531,0.08096009,-0.00213053
1704703687556032,0.06703765,0.02394202,10.22802925,0.02769688,0.08096009,-0.00319579
1704703687558075,0.08140286,0.01915361,10.22802925,0.03515373,0.08309063,-0.00319579
1704703687560074,0.06703765,0.01915361,10.24718285,0.04048005,0.07243798,0.00106526
1704703687562013,0.07661445,0.03351882,10.24239445,0.02556635,0.06817693,0.00213053
1704703687564055,0.07182605,0.01915361,10.25675964,0.01704423,0.07776430,-0.00213053
1704703687566068,0.06703765,0.03351882,10.26154804,0.02876214,0.07669904,0.00532632
1704703687568053,0.08619126,0.03351882,10.24718285,0.02663161,0.07030746,0.01065264
1704703687570091,0.07182605,0.03351882,10.26154804,0.01065264,0.06711166,0.00958738
1704703687572068,0.07182605,0.04309563,10.26154804,0.01491370,0.06178534,0.00852212
1704703687574012,0.08619126,0.02873042,10.25675964,0.02343582,0.05539375,0.00639159
1704703687576162,0.07182605,0.04788403,10.26154804,0.02876214,0.05539375,-0.00426106
1704703687578126,0.08619126,0.04788403,10.26154804,0.02450108,0.04474111,-0.00106526
1704703687580323,0.08619126,0.03830723,10.26633644,0.02876214,0.04048005,0.00639159
1704703687582003,0.07661445,0.05267244,10.27591324,0.03195793,0.04154531,0.00106526
1704703687584121,0.09576806,0.03830723,10.27112484,0.03621899,0.03515373,-0.00106526
1704703687586075,0.07661445,0.05267244,10.26633644,0.03089267,0.03302320,-0.00319579
1704703687588092,0.07661445,0.05267244,10.27591324,0.03408846,0.03941479,0.00213053
1704703687590062,0.09097967,0.04309563,10.27112484,0.03834952,0.02876214,0.00532632
1704703687592034,0.06703765,0.05746084,10.28549004,0.03941479,0.02237055,0.01065264
1704703687594232,0.07182605,0.05267244,10.29027843,0.04580637,0.02663161,0.01065264
1704703687596050,0.07182605,0.05267244,10.28070164,0.05965481,0.02876214,0.00532632
1704703687598184,0.06224924,0.05746084,10.29027843,0.05645901,0.02769688,-0.00213053
1704703687600041,0.08140286,0.05267244,10.29027843,0.04687164,0.02982740,-0.00745685
1704703687602159,0.07182605,0.05267244,10.29027843,0.04687164,0.03089267,-0.00319579
1704703687604153,0.06703765,0.06224924,10.30943298,0.06391586,0.02876214,-0.00319579
1704703687606090,0.06703765,0.05746084,10.29027843,0.06072007,0.03515373,-0.00426106
1704703687608045,0.04788403,0.07182605,10.30943298,0.05539375,0.03302320,-0.00319579
1704703687610096,0.06224924,0.07182605,10.30943298,0.05965481,0.03302320,-0.00319579
1704703687612099,0.04788403,0.06703765,10.29985619,0.06817693,0.03089267,-0.00426106
1704703687614094,0.05267244,0.08619126,10.31422138,0.07776430,0.02876214,0.00000000
1704703687616162,0.06224924,0.08140286,10.30464458,0.08415589,0.03089267,0.00106526
1704703687618059,0.03830723,0.09097967,10.29985619,0.09480853,0.04687164,0.00000000
1704703687620074,0.05746084,0.09576806,10.29506683,0.09267800,0.05326322,0.00532632
1704703687622073,0.05267244,0.08140286,10.28549004,0.09054748,0.05006743,0.00958738
1704703687624079,0.03830723,0.09576806,10.29027843,0.09374327,0.03728426,0.00213053
1704703687626067,0.04788403,0.10534488,10.28549004,0.10439591,0.05006743,0.00319579
1704703687628108,0.03830723,0.08140286,10.26633644,0.10652644,0.06285060,-0.00213053
1704703687630244,0.03830723,0.11013328,10.27112484,0.09267800,0.05965481,-0.00532632
1704703687632004,0.04309563,0.07661445,10.25675964,0.08415589,0.05326322,-0.01065264
1704703687634085,0.03830723,0.08619126,10.26154804,0.08628642,0.05539375,-0.00958738
1704703687636101,0.03351882,0.10055647,10.26154804,0.08628642,0.05965481,-0.00639159
1704703687638096,0.03830723,0.07182605,10.25197124,0.08202536,0.06711166,-0.00745685
1704703687640053,0.04309563,0.09576806,10.24239445,0.08309063,0.07243798,-0.00745685
1704703687642048,0.03830723,0.08140286,10.24718285,0.08096009,0.07456851,-0.00426106
1704703687644053,0.05267244,0.06703765,10.23760605,0.06711166,0.07456851,-0.01065264
1704703687646080,0.04309563,0.09097967,10.22802925,0.06072007,0.07243798,-0.00958738
1704703687648060,0.05267244,0.05746084,10.23760605,0.06498113,0.07989483,-0.01171791
1704703687650071,0.06224924,0.07182605,10.21366405,0.05965481,0.08628642,-0.01171791
1704703687652039,0.05746084,0.05746084,10.22802925,0.05006743,0.08415589,-0.00745685
1704703687654078,0.07182605,0.05267244,10.21845245,0.05752428,0.08096009,-0.00426106
1704703687656131,0.05746084,0.07182605,10.19929886,0.06391586,0.07989483,-0.00958738
1704703687658065,0.07182605,0.05267244,10.20408726,0.05432849,0.08096009,-0.00958738
1704703687660064,0.07661445,0.05746084,10.18972206,0.04793690,0.08202536,-0.01278317
1704703687662033,0.05267244,0.06224924,10.18972206,0.05219796,0.08096009,-0.01171791
1704703687664054,0.08140286,0.04788403,10.19451046,0.05539375,0.07456851,-0.01491370
1704703687666084,0.07661445,0.05746084,10.17056847,0.04900216,0.06391586,-0.00532632
1704703687668075,0.07182605,0.05267244,10.18493366,0.04367584,0.06072007,-0.00426106
1704703687670086,0.09576806,0.04309563,10.17535686,0.04154531,0.06391586,-0.00745685
1704703687672063,0.08140286,0.04309563,10.16099167,0.03621899,0.06391586,-0.01065264
1704703687674067,0.10534488,0.04309563,10.17056847,0.03515373,0.04900216,-0.00745685
1704703687676040,0.10534488,0.02873042,10.14183807,0.03834952,0.04367584,-0.00958738
1704703687678105,0.10055647,0.03830723,10.14662647,0.03302320,0.03834952,-0.00852212
1704703687680070,0.11971009,0.03351882,10.15141487,0.03089267,0.04154531,-0.00639159
1704703687682031,0.11013328,0.02873042,10.12268448,0.03195793,0.04261058,-0.00532632
1704703687684031,0.12449849,0.04309563,10.12747288,0.02876214,0.03195793,-0.00852212
1704703687686098,0.12928689,0.02394202,10.11789608,0.02769688,0.02130529,-0.00426106
1704703687688054,0.12928689,0.03830723,10.10353088,0.03834952,0.01491370,-0.00639159
1704703687690105,0.13886370,0.04309563,10.10831928,0.03941479,0.02450108,-0.00213053
1704703687692106,0.13886370,0.02873042,10.08916569,0.03195793,0.02343582,0.00213053
1704703687694061,0.14844051,0.05267244,10.08437729,0.02556635,0.01597897,0.00958738
1704703687696195,0.14844051,0.03351882,10.07958889,0.04474111,0.00000000,0.00426106
1704703687698087,0.15322891,0.05746084,10.07001209,0.05645901,0.00000000,0.00852212
1704703687700323,0.15322891,0.05746084,10.07958889,0.04048005,0.00426106,0.01278317
1704703687702033,0.15801731,0.04788403,10.06522369,0.02450108,-0.00213053,0.00745685
1704703687704094,0.15801731,0.06224924,10.06043530,0.03408846,-0.00426106,0.00639159
1704703687706112,0.15801731,0.05267244,10.07480049,0.04900216,-0.00745685,0.01278317
1704703687708036,0.15801731,0.05267244,10.06522369,0.04048005,-0.00745685,0.01384844
1704703687710079,0.15322891,0.07182605,10.06522369,0.04367584,-0.01917476,0.01278317
1704703687712053,0.15322891,0.05746084,10.07958889,0.05858954,-0.02130529,0.00958738
1704703687714223,0.15322891,0.07661445,10.05564690,0.05752428,-0.01810949,0.00106526
1704703687716063,0.14844051,0.07661445,10.07480049,0.05645901,-0.03089267,0.01278317
1704703687718208,0.14844051,0.07661445,10.07001209,0.05858954,-0.04367584,0.01384844
1704703687720096,0.14365210,0.08619126,10.06043530,0.05965481,-0.04474111,0.00532632
1704703687722060,0.13886370,0.08140286,10.07958889,0.04474111,-0.02982740,0.00106526
1704703687724074,0.13407530,0.08140286,10.07001209,0.04900216,-0.03621899,0.00745685
1704703687726049,0.12928689,0.09097967,10.07001209,0.05432849,-0.04793690,0.00958738
1704703687728095,0.12449849,0.08140286,10.08437729,0.05113269,-0.05113269,0.01384844
1704703687730121,0.11971009,0.09097967,10.07480049,0.04261058,-0.05006743,0.00852212
1704703687732120,0.11013328,0.10055647,10.07958889,0.03834952,-0.04474111,0.00745685
1704703687734075,0.11013328,0.09576806,10.08437729,0.03941479,-0.04474111,-0.00213053
1704703687736249,0.10534488,0.11013328,10.07001209,0.03515373,-0.04580637,-0.00745685
1704703687738168,0.10055647,0.11013328,10.07958889,0.03408846,-0.05326322,-0.00958738
1704703687740152,0.09576806,0.11971009,10.07001209,0.04367584,-0.05113269,-0.01171791
1704703687742060,0.09097967,0.11971009,10.07001209,0.04687164,-0.04687164,-0.01597897
1704703687744100,0.08619126,0.11013328,10.07958889,0.04367584,-0.04474111,-0.01065264
1704703687746107,0.09097967,0.12449849,10.06043530,0.03941479,-0.04580637,-0.00532632
1704703687748055,0.07661445,0.12449849,10.06043530,0.04367584,-0.05326322,-0.01278317
1704703687750061,0.07661445,0.11492168,10.07480049,0.04367584,-0.05432849,-0.01810949
1704703687752041,0.07182605,0.12449849,10.05085850,0.03515373,-0.04900216,-0.01278317
1704703687754200,0.06224924,0.10534488,10.06043530,0.02237055,-0.04367584,-0.01171791
1704703687756093,0.06703765,0.11492168,10.05564690,0.02450108,-0.04367584,-0.01384844
1704703687758160,0.05746084,0.10534488,10.04607010,0.01810949,-0.04154531,-0.00639159
1704703687760083,0.05746084,0.09576806,10.06522369,0.01278317,-0.04900216,0.00000000
1704703687762076,0.04788403,0.10534488,10.05085850,0.02130529,-0.05219796,0.00106526
1704703687764101,0.04309563,0.09097967,10.05564690,0.04474111,-0.03728426,-0.00745685
1704703687766093,0.04788403,0.09576806,10.05564690,0.05113269,-0.02876214,-0.01384844
1704703687768039,0.03351882,0.09576806,10.04607010,0.04261058,-0.04048005,-0.01810949
1704703687770108,0.04788403,0.09097967,10.05564690,0.04367584,-0.04154531,-0.01597897
1704703687772090,0.02873042,0.09097967,10.05564690,0.06072007,-0.02769688,-0.01917476
1704703687774086,0.03830723,0.08619126,10.06043530,0.06072007,-0.01917476,-0.01704423
1704703687776230,0.04309563,0.09576806,10.06043530,0.05965481,-0.01917476,-0.00639159
1704703687778145,0.03830723,0.08619126,10.06522369,0.07882957,-0.02130529,-0.00319579
1704703687780078,0.05267244,0.08619126,10.06043530,0.07882957,-0.01810949,-0.00532632
1704703687782073,0.03351882,0.08619126,10.07001209,0.05326322,-0.01171791,-0.00106526
1704703687784060,0.03830723,0.09097967,10.07958889,0.04048005,-0.00639159,0.01065264
1704703687786077,0.04788403,0.08619126,10.07001209,0.06072007,-0.01278317,0.01278317
1704703687788092,0.02873042,0.08619126,10.07480049,0.07137272,-0.01171791,0.00958738
1704703687790167,0.05267244,0.09097967,10.07001209,0.05432849,-0.00852212,0.00319579
1704703687792030,0.03830723,0.08619126,10.07480049,0.05006743,-0.00426106,0.00958738
1704703687794179,0.04309563,0.09097967,10.08916569,0.07350325,0.00319579,0.00852212
1704703687796065,0.05267244,0.08140286,10.07001209,0.07989483,0.01384844,0.00852212
1704703687798197,0.03351882,0.08140286,10.08437729,0.07030746,0.01384844,0.00106526
1704703687800071,0.05746084,0.09576806,10.08916569,0.06391586,0.01917476,0.00213053
1704703687802115,0.04309563,0.07182605,10.08437729,0.07456851,0.02556635,0.00213053
1704703687804074,0.03830723,0.08140286,10.10831928,0.07776430,0.02982740,0.01171791
1704703687806105,0.04788403,0.08140286,10.09874249,0.07989483,0.02769688,0.00639159
1704703687808026,0.03351882,0.06703765,10.11310768,0.08948221,0.03728426,0.00213053
1704703687810058,0.04788403,0.06703765,10.11789608,0.08628642,0.04048005,-0.00532632
1704703687812110,0.04309563,0.05267244,10.11789608,0.08415589,0.03195793,-0.00639159
1704703687814125,0.04309563,0.06703765,10.14183807,0.08522116,0.03408846,-0.00426106
1704703687816092,0.04788403,0.03830723,10.14183807,0.08522116,0.04900216,0.00319579
1704703687818068,0.04788403,0.03830723,10.14662647,0.07669904,0.04793690,-0.00106526
1704703687820112,0.05267244,0.05746084,10.15620327,0.07030746,0.02556635,-0.00213053
1704703687822058,0.05746084,0.03351882,10.16099167,0.06391586,0.02130529,0.00319579
1704703687824068,0.06224924,0.03351882,10.16578007,0.05752428,0.02663161,0.00426106
1704703687826074,0.05267244,0.03351882,10.17535686,0.06498113,0.02876214,-0.00106526
1704703687828066,0.07661445,0.01436521,10.17056847,0.06072007,0.02130529,0.00106526
1704703687830115,0.07182605,0.02394202,10.17056847,0.04474111,0.02130529,-0.00532632
1704703687832056,0.07182605,0.00478840,10.18972206,0.02876214,0.01171791,0.00106526
1704703687834032,0.08619126,-0.00478840,10.18014526,0.03195793,0.00319579,0.01491370
1704703687836084,0.06703765,0.00478840,10.18972206,0.03941479,0.00852212,0.00745685
1704703687838258,0.09097967,-0.01436521,10.19929886,0.03089267,0.01065264,0.00106526
1704703687840114,0.08619126,-0.01436521,10.18014526,0.01917476,0.01171791,0.01065264
1704703687842047,0.08140286,-0.00957681,10.19929886,0.02343582,-0.00639159,0.00958738
1704703687844106,0.10055647,-0.02873042,10.19929886,0.03089267,-0.01171791,0.00319579
1704703687846084,0.08140286,-0.02394202,10.18972206,0.01491370,0.00106526,0.00319579
1704703687848102,0.09576806,-0.02394202,10.20887566,0.00106526,0.00106526,0.01065264
1704703687850076,0.09097967,-0.03830723,10.18972206,0.00426106,-0.01491370,0.00852212
1704703687852091,0.08619126,-0.02873042,10.19451046,-0.00106526,-0.01171791,0.00852212
1704703687854114,0.09576806,-0.04788403,10.18493366,-0.01704423,-0.00852212,-0.00213053
1704703687856103,0.08619126,-0.04309563,10.18014526,-0.01810949,-0.02237055,0.00532632
1704703687858185,0.09576806,-0.02873042,10.18972206,-0.01278317,-0.03195793,0.00852212
1704703687860110,0.09097967,-0.04788403,10.16099167,-0.02556635,-0.01810949,-0.00639159
1704703687862077,0.09097967,-0.03351882,10.16099167,-0.04261058,-0.02876214,-0.00532632
1704703687864076,0.09576806,-0.03830723,10.17535686,-0.04474111,-0.04048005,0.00000000
1704703687866102,0.09576806,-0.05267244,10.15620327,-0.02343582,-0.04367584,0.00213053
1704703687868064,0.09097967,-0.02873042,10.15141487,-0.00958738,-0.03621899,-0.01065264
1704703687870195,0.09576806,-0.04788403,10.15141487,-0.03195793,-0.03089267,-0.01384844
1704703687872060,0.09576806,-0.03351882,10.13226128,-0.04793690,-0.03515373,-0.00639159
1704703687874067,0.09576806,-0.03351882,10.14662647,-0.04261058,-0.05432849,-0.01278317
1704703687876086,0.10055647,-0.04788403,10.13704967,-0.05006743,-0.05113269,-0.01065264
1704703687878032,0.09576806,-0.02873042,10.12268448,-0.07030746,-0.04261058,-0.01278317
1704703687880096,0.10534488,-0.03351882,10.13704967,-0.07350325,-0.04687164,-0.00639159
1704703687882065,0.10534488,-0.03351882,10.12268448,-0.07563377,-0.05219796,-0.00958738
1704703687884138,0.10534488,-0.02873042,10.11789608,-0.08202536,-0.04474111,-0.00745685
1704703687886137,0.10534488,-0.03351882,10.11310768,-0.08628642,-0.05219796,-0.00852212
1704703687888118,0.10055647,-0.02873042,10.10353088,-0.08948221,-0.05432849,-0.00213053
1704703687890136,0.10534488,-0.03351882,10.10353088,-0.08522116,-0.04048005,-0.01810949
1704703687892132,0.10534488,-0.04309563,10.09874249,-0.09480853,-0.04154531,-0.01704423
1704703687894058,0.10534488,-0.03351882,10.08437729,-0.10013486,-0.05113269,-0.01917476
1704703687896073,0.10534488,-0.04309563,10.08437729,-0.09906960,-0.04580637,-0.01491370
1704703687898117,0.09576806,-0.04309563,10.07001209,-0.09054748,-0.03302320,-0.02876214
1704703687900070,0.09576806,-0.03351882,10.06043530,-0.09693906,-0.02982740,-0.01278317
1704703687902135,0.09097967,-0.04309563,10.06522369,-0.10226539,-0.02769688,-0.00852212
1704703687904170,0.09097967,-0.02873042,10.03649330,-0.08309063,-0.03302320,-0.00958738
1704703687906121,0.08140286,-0.03351882,10.03170490,-0.07563377,-0.03302320,-0.01171791
1704703687908077,0.07661445,-0.03830723,10.03649330,-0.09267800,-0.02982740,0.00106526
1704703687910033,0.07661445,-0.02394202,10.01255131,-0.09587380,-0.03195793,0.00639159
1704703687912034,0.06703765,-0.03830723,10.01255131,-0.08202536,-0.03408846,0.01065264
1704703687914128,0.07182605,-0.02873042,9.99339771,-0.07563377,-0.02982740,0.00426106
1704703687916081,0.06703765,-0.02873042,9.96466732,-0.08841695,-0.02769688,0.01171791
1704703687918073,0.06703765,-0.03830723,9.97424412,-0.09693906,-0.03728426,0.00958738
1704703687920073,0.06224924,-0.02394202,9.95509052,-0.08735169,-0.03728426,0.01597897
1704703687922069,0.05746084,-0.03830723,9.95030212,-0.06498113,-0.02450108,0.00426106
1704703687924055,0.06224924,-0.02873042,9.94551373,-0.06391586,-0.01704423,0.00000000
1704703687926112,0.05267244,-0.01915361,9.92157173,-0.08415589,-0.02237055,-0.00319579
1704703687928071,0.05746084,-0.03351882,9.93114853,-0.08309063,-0.01491370,-0.00426106
1704703687930110,0.04788403,-0.01915361,9.92157173,-0.07350325,-0.00745685,-0.00319579
1704703687932174,0.04309563,-0.02394202,9.91199493,-0.06711166,-0.00426106,-0.00426106
1704703687934032,0.04788403,-0.01436521,9.90720654,-0.05965481,-0.01065264,0.00319579
1704703687936058,0.03830723,-0.00478840,9.89762974,-0.05326322,-0.00958738,0.00639159
1704703687938101,0.04788403,-0.00478840,9.88805294,-0.05858954,0.00106526,0.00000000
1704703687940074,0.03830723,0.00478840,9.88805294,-0.05432849,0.00000000,0.00213053
1704703687942061,0.04309563,0.00957681,9.87847614,-0.04261058,-0.00745685,0.01065264
1704703687944040,0.04788403,0.01436521,9.86889935,-0.04474111,-0.00426106,0.00106526
1704703687946198,0.03351882,0.01915361,9.86889935,-0.05219796,0.00532632,-0.00213053
1704703687948089,0.06224924,0.02394202,9.85453415,-0.05858954,0.00000000,0.00745685
1704703687950190,0.05267244,0.02394202,9.85453415,-0.05752428,-0.00852212,0.00958738
1704703687952036,0.04309563,0.02394202,9.86889935,-0.04154531,-0.00532632,0.00213053
1704703687954101,0.05746084,0.02873042,9.84974575,-0.04367584,0.00000000,0.00639159
1704703687956092,0.04309563,0.02394202,9.84974575,-0.06178534,0.00958738,0.00639159
1704703687958088,0.05746084,0.03351882,9.85453415,-0.06924219,0.00319579,0.00319579
1704703687960074,0.05746084,0.01915361,9.83538055,-0.05752428,0.00000000,0.00213053
1704703687962049,0.04788403,0.02394202,9.85453415,-0.06072007,-0.00106526,0.00213053
1704703687964071,0.06224924,0.02394202,9.84495735,-0.06817693,-0.00106526,0.00106526
1704703687966109,0.04788403,0.00478840,9.84495735,-0.07350325,0.00213053,0.00639159
1704703687968070,0.05746084,0.01436521,9.85453415,-0.07989483,0.00639159,0.00745685
1704703687970121,0.05746084,-0.00478840,9.84495735,-0.09161274,0.00532632,0.00426106
1704703687972030,0.05267244,-0.00478840,9.85932255,-0.08948221,-0.00745685,0.01384844
1704703687974105,0.05746084,0.00478840,9.85932255,-0.08415589,-0.00213053,0.01597897
1704703687976076,0.05746084,-0.01915361,9.85453415,-0.07456851,0.00852212,0.00852212
1704703687978025,0.06224924,0.00000000,9.86411095,-0.08202536,0.00106526,0.01065264
1704703687980140,0.05746084,-0.00957681,9.86889935,-0.09054748,-0.01810949,0.00852212
1704703687982071,0.07182605,-0.01915361,9.87368774,-0.08415589,-0.02024002,0.00000000
1704703687984099,0.06224924,-0.00957681,9.88326454,-0.07243798,-0.02130529,-0.00319579
1704703687986091,0.08619126,-0.01915361,9.89284134,-0.08841695,-0.02130529,-0.00213053
1704703687988075,0.08619126,-0.00957681,9.89284134,-0.09800433,-0.02450108,-0.00426106
1704703687990146,0.07182605,-0.01436521,9.91199493,-0.09161274,-0.02556635,0.00213053
1704703687992063,0.09576806,-0.02394202,9.91199493,-0.07669904,-0.03515373,0.00532632
1704703687994052,0.07661445,-0.01436521,9.91678333,-0.09480853,-0.03302320,0.00639159
1704703687996096,0.08619126,-0.01436521,9.94072533,-0.11185277,-0.03302320,0.00532632
1704703687998101,0.09576806,-0.01436521,9.93114853,-0.08628642,-0.03089267,0.01384844
1704703688000085,0.07661445,-0.00957681,9.94072533,-0.06711166,-0.03515373,0.01278317
1704703688002057,0.09576806,-0.00478840,9.95030212,-0.07669904,-0.03834952,0.00852212
1704703688004075,0.08140286,-0.00957681,9.95030212,-0.08522116,-0.04367584,0.00426106
1704703688006094,0.08140286,0.00478840,9.97424412,-0.07989483,-0.03089267,-0.00106526
1704703688008093,0.09576806,0.00000000,9.96945572,-0.06604639,-0.02663161,-0.01065264
1704703688010035,0.07661445,0.00478840,9.96945572,-0.06711166,-0.02982740,-0.01171791
1704703688012059,0.09576806,0.01915361,9.98860931,-0.07456851,-0.02769688,-0.01171791
1704703688014102,0.08619126,0.00478840,9.97903252,-0.06817693,-0.02769688,-0.01384844
1704703688016070,0.08140286,0.02873042,10.00297451,-0.05539375,-0.02876214,-0.01491370
1704703688018095,0.09097967,0.02394202,10.00776291,-0.05432849,-0.01917476,-0.01491370
1704703688020075,0.08140286,0.02394202,10.00297451,-0.05539375,-0.01278317,-0.01917476
1704703688022057,0.08619126,0.04309563,10.02691650,-0.05219796,-0.01704423,-0.02024002
1704703688024109,0.08619126,0.02394202,10.02691650,-0.04687164,-0.01917476,-0.01810949
1704703688026056,0.08619126,0.04309563,10.03649330,-0.04793690,-0.00639159,-0.01491370
1704703688028047,0.08140286,0.03830723,10.05085850,-0.04367584,-0.00319579,-0.01384844
1704703688030229,0.08619126,0.03351882,10.04607010,-0.03302320,0.00213053,-0.00852212
1704703688032043,0.07661445,0.04788403,10.05564690,-0.03941479,0.00000000,-0.01491370
1704703688034287,0.07661445,0.03351882,10.07001209,-0.03941479,-0.00319579,-0.01278317
1704703688036057,0.07182605,0.04309563,10.07001209,-0.03621899,0.00426106,-0.01491370
1704703688038105,0.06224924,0.04309563,10.07958889,-0.03089267,0.00319579,-0.01917476
1704703688040117,0.08140286,0.03830723,10.08437729,-0.03515373,0.00319579,-0.01704423
1704703688042049,0.07182605,0.04788403,10.07480049,-0.03515373,-0.00213053,-0.01171791
1704703688044036,0.06703765,0.05267244,10.09874249,-0.02982740,0.00000000,-0.00852212
1704703688046090,0.07661445,0.04788403,10.09395409,-0.02343582,0.00426106,-0.00213053
1704703688048093,0.05746084,0.05746084,10.08916569,-0.02876214,0.00213053,0.01278317
1704703688050097,0.07661445,0.06224924,10.11310768,-0.03941479,-0.00106526,0.00532632
1704703688052051,0.07182605,0.05267244,10.09395409,-0.04048005,0.00532632,-0.00532632
1704703688054121,0.06224924,0.06703765,10.10353088,-0.04154531,0.01065264,0.00319579
1704703688056133,0.08140286,0.05267244,10.10831928,-0.04261058,-0.00426106,0.01171791
1704703688058096,0.06703765,0.05267244,10.09395409,-0.05113269,-0.00852212,0.00426106
1704703688060031,0.07661445,0.06703765,10.11310768,-0.04900216,-0.00213053,0.00852212
1704703688062054,0.07661445,0.04309563,10.09395409,-0.03728426,0.00639159,0.01065264
1704703688064101,0.07182605,0.06224924,10.08437729,-0.04580637,-0.00532632,0.00852212
1704703688066158,0.08140286,0.05746084,10.10353088,-0.06285060,-0.02450108,0.00532632
1704703688068091,0.08140286,0.06224924,10.08437729,-0.03621899,-0.01384844,0.00745685
1704703688070056,0.08619126,0.06703765,10.09395409,-0.02556635,-0.01065264,0.00532632
1704703688071979,0.09576806,0.05267244,10.08916569,-0.02556635,-0.01704423,0.00213053
1704703688074105,0.10055647,0.06703765,10.07958889,-0.02982740,-0.02556635,-0.00426106
1704703688076081,0.10055647,0.06703765,10.08916569,-0.01384844,-0.02663161,-0.01384844
1704703688078070,0.10534488,0.05746084,10.08437729,-0.00745685,-0.02237055,-0.01065264
1704703688080090,0.10055647,0.08140286,10.07958889,-0.01171791,-0.03195793,-0.00106526
1704703688082102,0.10055647,0.07661445,10.08916569,-0.00852212,-0.03302320,0.00106526
1704703688084082,0.10534488,0.08140286,10.07958889,-0.00213053,-0.02237055,0.00106526
1704703688086065,0.10055647,0.09097967,10.07958889,0.00213053,-0.02450108,0.00852212
1704703688088082,0.10534488,0.08619126,10.08916569,-0.00213053,-0.03728426,0.00106526
1704703688090114,0.10055647,0.09576806,10.07958889,-0.00106526,-0.03728426,-0.00426106
1704703688092046,0.09576806,0.10055647,10.08437729,0.01917476,-0.02769688,-0.00532632
1704703688094059,0.11013328,0.09576806,10.08437729,0.03302320,-0.03089267,-0.00426106
1704703688096118,0.10055647,0.10534488,10.07001209,0.02130529,-0.04367584,0.00319579
1704703688098147,0.10055647,0.10534488,10.08437729,0.01384844,-0.04580637,-0.00106526
1704703688100096,0.10055647,0.09576806,10.07480049,0.01704423,-0.03515373,-0.00532632
1704703688102025,0.10055647,0.10534488,10.06522369,0.02237055,-0.03089267,-0.00745685
1704703688104035,0.11013328,0.10055647,10.07480049,0.01810949,-0.04154531,-0.00639159
1704703688106126,0.11013328,0.09097967,10.05564690,0.01597897,-0.04687164,-0.00319579
1704703688108098,0.10534488,0.10055647,10.06522369,0.02450108,-0.04367584,-0.00532632
1704703688110127,0.11492168,0.08619126,10.06522369,0.03408846,-0.03941479,0.00000000
1704703688112040,0.11013328,0.10055647,10.04128170,0.04048005,-0.04154531,-0.00532632
1704703688114092,0.11013328,0.09576806,10.05564690,0.04367584,-0.04154531,-0.00639159
1704703688116079,0.11492168,0.08619126,10.04128170,0.04900216,-0.03834952,-0.00319579
1704703688118060,0.11013328,0.10055647,10.03649330,0.04580637,-0.03834952,0.00319579
1704703688120060,0.11013328,0.08619126,10.05085850,0.05219796,-0.04154531,0.00639159
1704703688122097,0.10534488,0.09097967,10.02691650,0.05432849,-0.03621899,0.00426106
1704703688124154,0.09576806,0.09097967,10.03170490,0.04900216,-0.02769688,0.00532632
1704703688126085,0.10055647,0.08140286,10.03170490,0.04793690,-0.03302320,0.00319579
1704703688128096,0.09576806,0.08140286,10.01733971,0.04261058,-0.03621899,0.00852212
1704703688130067,0.09576806,0.07661445,10.02212811,0.04900216,-0.03515373,0.00958738
1704703688132056,0.09097967,0.07661445,10.01255131,0.05326322,-0.02663161,0.01065264
1704703688134087,0.08619126,0.08140286,10.00297451,0.05113269,-0.01597897,0.00639159
1704703688136146,0.08619126,0.07661445,10.00297451,0.04900216,-0.01171791,0.00106526
1704703688138094,0.07661445,0.07182605,9.99339771,0.04580637,-0.02130529,-0.00532632
1704703688140116,0.07661445,0.07661445,9.98382092,0.04367584,-0.01171791,-0.00106526
1704703688142119,0.07182605,0.06703765,9.98860931,0.04474111,-0.00426106,0.00106526
1704703688144076,0.06703765,0.06703765,9.97903252,0.04687164,-0.00213053,-0.00106526
1704703688146102,0.06703765,0.06703765,9.96466732,0.04154531,0.00319579,-0.01384844
1704703688148073,0.06224924,0.05746084,9.96945572,0.03621899,0.00426106,-0.00639159
1704703688150241,0.06224924,0.06224924,9.94551373,0.03941479,-0.00426106,-0.01171791
1704703688152032,0.05746084,0.05746084,9.94072533,0.03195793,-0.00106526,-0.00639159
1704703688154211,0.05746084,0.05267244,9.94072533,0.02982740,0.00852212,-0.01171791
1704703688156182,0.06224924,0.06224924,9.91678333,0.04580637,0.00745685,-0.00745685
1704703688158144,0.06224924,0.04788403,9.91678333,0.05113269,0.00639159,-0.00426106
1704703688160081,0.06703765,0.06224924,9.89762974,0.03728426,0.00106526,-0.00426106
1704703688162164,0.06703765,0.05746084,9.89284134,0.03941479,0.00213053,-0.01171791
1704703688164098,0.07182605,0.05267244,9.89284134,0.04261058,0.00745685,-0.01278317
1704703688166119,0.06703765,0.06703765,9.86411095,0.03195793,0.01278317,-0.00532632
1704703688168067,0.07182605,0.05267244,9.86411095,0.03302320,0.00000000,-0.00426106
1704703688170062,0.07661445,0.06224924,9.85453415,0.04048005,0.00000000,-0.01597897
1704703688172044,0.07182605,0.05746084,9.84016895,0.04048005,0.00958738,-0.01065264
1704703688174129,0.07661445,0.05746084,9.84016895,0.03728426,0.00852212,-0.00426106
1704703688176118,0.07182605,0.06703765,9.83059216,0.04687164,-0.00319579,0.00000000
1704703688178094,0.08140286,0.06224924,9.82101536,0.05539375,0.00426106,-0.00532632
1704703688180121,0.08619126,0.06224924,9.81622696,0.04580637,0.00745685,-0.00639159
1704703688182076,0.07661445,0.05746084,9.80665016,0.03515373,0.00213053,-0.00213053
1704703688184055,0.09097967,0.05746084,9.79707336,0.02769688,-0.00319579,0.00319579
1704703688186071,0.07182605,0.05746084,9.79228497,0.03302320,0.01171791,-0.00852212
1704703688188053,0.08140286,0.04788403,9.78270817,0.02982740,0.01278317,-0.01278317
1704703688190116,0.08619126,0.04788403,9.76355457,0.02663161,0.00213053,-0.01065264
1704703688192048,0.07182605,0.04788403,9.77313137,0.04154531,0.00532632,-0.00958738
1704703688194083,0.08140286,0.04788403,9.75876617,0.06072007,0.01278317,-0.01384844
1704703688196074,0.07182605,0.04309563,9.75397778,0.04687164,0.01597897,-0.01384844
1704703688198128,0.07661445,0.05267244,9.75876617,0.03621899,0.00532632,-0.01597897
1704703688200092,0.08619126,0.05267244,9.73961258,0.05326322,0.00639159,-0.01491370
1704703688202083,0.06703765,0.04788403,9.75397778,0.04687164,0.00745685,-0.01491370
1704703688204051,0.08619126,0.06224924,9.75397778,0.02769688,0.00639159,-0.00745685
1704703688206094,0.07182605,0.04788403,9.74440098,0.02663161,0.00106526,-0.00213053
1704703688208105,0.07182605,0.05746084,9.76355457,0.04261058,0.00745685,-0.01065264
1704703688210098,0.08140286,0.05746084,9.74918938,0.03941479,0.01704423,-0.01704423
1704703688212114,0.07182605,0.04309563,9.75876617,0.02876214,0.00426106,-0.00958738
1704703688214078,0.07661445,0.06224924,9.76355457,0.02982740,0.00000000,-0.00745685
1704703688216107,0.06703765,0.04309563,9.75876617,0.03621899,0.01491370,-0.01384844
1704703688218069,0.06703765,0.05267244,9.76355457,0.03728426,0.02556635,-0.01171791
1704703688220073,0.06703765,0.06224924,9.76355457,0.02450108,0.00852212,-0.00958738
1704703688222063,0.06703765,0.04309563,9.76355457,0.01384844,0.00106526,-0.01491370
1704703688224057,0.06703765,0.05746084,9.77313137,0.01810949,0.01065264,-0.01278317
1704703688226092,0.05746084,0.04788403,9.77791977,0.03302320,0.01065264,-0.01065264
1704703688228094,0.07182605,0.05267244,9.77313137,0.04474111,0.00639159,-0.00639159
1704703688230046,0.05746084,0.06703765,9.77791977,0.05858954,0.00213053,-0.01278317
1704703688232066,0.06703765,0.05267244,9.78749657,0.05006743,0.00532632,-0.01597897
1704703688234179,0.07661445,0.06703765,9.77313137,0.04261058,0.00319579,-0.01065264
1704703688236222,0.05267244,0.06703765,9.79228497,0.04580637,-0.00426106,0.00532632
1704703688238100,0.07182605,0.07661445,9.78270817,0.04687164,-0.00852212,0.00639159
1704703688240129,0.05746084,0.07661445,9.78749657,0.04154531,0.00532632,0.00213053
1704703688242073,0.06224924,0.07661445,9.80665016,0.03621899,0.00532632,-0.00106526
1704703688244078,0.07661445,0.08140286,9.79228497,0.03515373,0.00000000,0.00000000
1704703688246096,0.05746084,0.07661445,9.80665016,0.03515373,0.00213053,0.00426106
1704703688248108,0.07182605,0.08619126,9.82101536,0.03515373,0.00213053,0.00639159
1704703688250097,0.06703765,0.07661445,9.81143856,0.02130529,0.00532632,0.00639159
1704703688252059,0.05746084,0.08619126,9.83059216,0.01917476,0.01065264,0.00213053
1704703688254058,0.07661445,0.08140286,9.82580376,0.04048005,0.01171791,0.00639159
1704703688256058,0.06224924,0.07182605,9.82580376,0.04474111,0.00319579,0.00213053
1704703688258110,0.07182605,0.09097967,9.84495735,0.02876214,0.00319579,0.00106526
1704703688260088,0.07182605,0.07182605,9.84016895,0.03302320,0.00213053,-0.00639159
1704703688262021,0.06703765,0.08140286,9.84495735,0.03089267,0.00213053,-0.00745685
1704703688264055,0.07661445,0.08619126,9.84974575,0.02130529,0.00532632,-0.00852212
1704703688266105,0.07182605,0.07182605,9.84974575,0.02343582,-0.00213053,0.00000000
1704703688268078,0.07661445,0.09097967,9.86411095,0.02556635,-0.00852212,-0.00213053
1704703688270108,0.07661445,0.07661445,9.86889935,0.02130529,0.00745685,-0.00213053
1704703688272044,0.07661445,0.08140286,9.86411095,0.01917476,0.00852212,0.00000000
1704703688274083,0.07661445,0.09097967,9.87847614,0.01704423,-0.00745685,-0.00106526
1704703688276088,0.08140286,0.07182605,9.87847614,0.01278317,-0.00745685,-0.00532632
1704703688278086,0.08140286,0.09097967,9.87847614,0.02130529,0.00426106,0.00106526
1704703688280011,0.07661445,0.08619126,9.89762974,0.03941479,-0.00745685,0.00213053
1704703688282085,0.09097967,0.09097967,9.88326454,0.03621899,-0.00426106,-0.01065264
1704703688284069,0.08619126,0.09576806,9.88805294,0.02982740,0.00000000,-0.00852212
1704703688286118,0.08619126,0.08140286,9.90720654,0.03302320,0.00106526,-0.00213053
1704703688288078,0.09097967,0.09097967,9.89762974,0.04580637,-0.00426106,0.00106526
1704703688290107,0.08140286,0.09097967,9.90720654,0.04793690,-0.00106526,0.00000000
1704703688292075,0.08619126,0.08619126,9.90720654,0.04474111,-0.00639159,-0.00213053
1704703688294080,0.08140286,0.09097967,9.90241814,0.03941479,-0.00213053,0.00958738
1704703688296080,0.07661445,0.09576806,9.91678333,0.03515373,0.00319579,0.01597897
1704703688298119,0.08619126,0.08619126,9.91678333,0.03408846,0.00639159,0.01171791
1704703688300086,0.06703765,0.09097967,9.91678333,0.03408846,0.00639159,0.00000000
1704703688302071,0.07182605,0.08619126,9.93114853,0.03408846,0.01384844,0.00000000
1704703688304052,0.07182605,0.08140286,9.92157173,0.04261058,0.02343582,-0.01171791
1704703688306065,0.06224924,0.09097967,9.92636013,0.04687164,0.02450108,-0.00958738
1704703688308104,0.06703765,0.08140286,9.94072533,0.04580637,0.02769688,-0.01171791
1704703688310094,0.05746084,0.08140286,9.92636013,0.04154531,0.03408846,-0.01384844
1704703688312044,0.05267244,0.09097967,9.94072533,0.04687164,0.03302320,-0.00958738
1704703688314074,0.05746084,0.07182605,9.94072533,0.04154531,0.03941479,-0.00745685
1704703688316100,0.04309563,0.08619126,9.92636013,0.04048005,0.04154531,-0.01384844
1704703688317984,0.04788403,0.07661445,9.94551373,0.04261058,0.03302320,-0.01384844
1704703688320079,0.04788403,0.06703765,9.93114853,0.05113269,0.03408846,-0.00426106
1704703688322092,0.04309563,0.08140286,9.92636013,0.05113269,0.04261058,-0.00532632
1704703688324095,0.04788403,0.06224924,9.93593693,0.04793690,0.04474111,-0.01171791
1704703688326101,0.04309563,0.07182605,9.91199493,0.04474111,0.03941479,-0.00745685
1704703688328077,0.04309563,0.07182605,9.92157173,0.05113269,0.04474111,-0.00106526
1704703688330093,0.05267244,0.06224924,9.91678333,0.04900216,0.04793690,-0.00319579
1704703688332049,0.04309563,0.07661445,9.89762974,0.04900216,0.05006743,-0.00213053
1704703688334200,0.04788403,0.06703765,9.91199493,0.05113269,0.05432849,-0.00852212
1704703688336087,0.04788403,0.06703765,9.89284134,0.04793690,0.05006743,-0.00532632
1704703688338078,0.04788403,0.07182605,9.88805294,0.03089267,0.04580637,-0.00745685
1704703688340082,0.05267244,0.06224924,9.89284134,0.02556635,0.03621899,-0.00958738
1704703688342077,0.04788403,0.06703765,9.87847614,0.04048005,0.04048005,-0.01278317
1704703688344064,0.05267244,0.06703765,9.87368774,0.03941479,0.03621899,-0.01065264
1704703688346093,0.05746084,0.06703765,9.87368774,0.03408846,0.03195793,-0.01384844
1704703688348098,0.06224924,0.07182605,9.85932255,0.03408846,0.01917476,-0.01065264
1704703688350274,0.06703765,0.07182605,9.85932255,0.03621899,0.01384844,-0.00106526
1704703688352054,0.06703765,0.07182605,9.85932255,0.03089267,0.01171791,-0.00319579
1704703688354095,0.07661445,0.08140286,9.84495735,0.03195793,0.00532632,0.00319579
1704703688356034,0.07661445,0.07661445,9.84495735,0.03089267,0.00639159,-0.00852212
1704703688358112,0.08140286,0.08140286,9.84016895,0.02663161,0.01065264,-0.01278317
1704703688360090,0.08619126,0.09097967,9.82580376,0.04048005,0.00958738,-0.01065264
1704703688362056,0.07661445,0.08140286,9.83059216,0.04793690,0.00213053,0.00213053
1704703688364115,0.08619126,0.09576806,9.81622696,0.02982740,-0.00213053,-0.00639159
1704703688366115,0.08140286,0.09097967,9.80665016,0.02663161,0.00319579,-0.00639159
1704703688368176,0.08140286,0.08619126,9.81143856,0.02343582,0.00106526,0.00213053
1704703688370075,0.08140286,0.08619126,9.78270817,0.00852212,-0.00106526,-0.00426106
1704703688372050,0.07661445,0.07661445,9.79228497,0.00532632,-0.00106526,-0.00639159
1704703688374090,0.08140286,0.09097967,9.78749657,0.00213053,0.00106526,-0.00745685
1704703688376091,0.07661445,0.08140286,9.77313137,0.00106526,0.00213053,-0.00745685
1704703688378102,0.07661445,0.06703765,9.77791977,0.00106526,-0.00106526,-0.00532632
1704703688380092,0.08140286,0.07661445,9.76355457,0.00106526,-0.00532632,-0.00106526
1704703688382069,0.07661445,0.05746084,9.75876617,0.00000000,-0.00639159,0.00106526
1704703688384097,0.08140286,0.05746084,9.76355457,0.00106526,0.00639159,-0.00319579
1704703688386072,0.06703765,0.04788403,9.74440098,-0.00426106,0.01491370,-0.00745685
1704703688388064,0.07661445,0.03830723,9.73961258,-0.01810949,0.00532632,-0.00958738
1704703688390192,0.07182605,0.04788403,9.73961258,-0.01491370,0.00319579,-0.01065264
1704703688392065,0.06703765,0.02873042,9.73482418,0.00639159,0.00958738,-0.00958738
1704703688394109,0.07661445,0.03830723,9.72524738,0.00532632,0.01597897,-0.00319579
1704703688396060,0.05746084,0.03351882,9.72524738,-0.00532632,0.00852212,0.00000000
1704703688398097,0.07182605,0.02873042,9.71567059,-0.00639159,0.00745685,-0.00106526
1704703688400091,0.06703765,0.03351882,9.71567059,0.00213053,0.01278317,-0.00639159
1704703688402068,0.05746084,0.02394202,9.71567059,-0.00532632,0.01171791,-0.00745685
1704703688404076,0.07182605,0.02873042,9.70609379,-0.00532632,-0.00319579,-0.00639159
1704703688406080,0.05267244,0.02873042,9.71567059,-0.00852212,0.00213053,-0.00958738
1704703688408105,0.06224924,0.02873042,9.71567059,0.00213053,0.01917476,-0.01065264
1704703688410122,0.06224924,0.03351882,9.70609379,0.00000000,0.01597897,-0.00745685
1704703688412215,0.04788403,0.03351882,9.72045898,-0.00213053,0.00745685,-0.00426106
1704703688414115,0.05746084,0.03830723,9.71088219,0.01171791,0.02130529,-0.00639159
1704703688416075,0.04788403,0.03351882,9.71567059,0.01491370,0.02556635,-0.00532632
1704703688418111,0.05267244,0.04788403,9.72524738,0.00852212,0.02556635,-0.00532632
1704703688420084,0.05746084,0.04788403,9.71088219,-0.00639159,0.02450108,-0.01491370
1704703688422057,0.03830723,0.03830723,9.73003578,0.00000000,0.02876214,-0.01384844
1704703688424099,0.05746084,0.05746084,9.73003578,0.00745685,0.03834952,-0.01065264
1704703688426096,0.04788403,0.03830723,9.72524738,0.01384844,0.03621899,-0.00426106
1704703688428145,0.04309563,0.05746084,9.73482418,0.01917476,0.02769688,-0.00532632
1704703688430094,0.05267244,0.05746084,9.72524738,0.02024002,0.02982740,0.00000000
1704703688432042,0.04309563,0.04788403,9.73003578,0.01597897,0.04474111,-0.00852212
1704703688434143,0.05267244,0.07182605,9.73003578,0.01384844,0.04261058,0.00000000
1704703688436086,0.04788403,0.04788403,9.72524738,0.01065264,0.03195793,0.00426106
1704703688438088,0.04788403,0.05746084,9.72524738,0.00958738,0.03195793,0.00213053
1704703688440075,0.05267244,0.06224924,9.72524738,0.00000000,0.04048005,-0.00426106
1704703688442075,0.05267244,0.04309563,9.72045898,-0.01384844,0.04580637,0.00639159
1704703688444149,0.05267244,0.06703765,9.72045898,-0.02130529,0.03941479,0.00000000
1704703688446067,0.05746084,0.04788403,9.72524738,-0.00639159,0.02876214,0.00745685
1704703688448081,0.05746084,0.04788403,9.71088219,0.01171791,0.03408846,0.00639159
1704703688450178,0.05267244,0.06703765,9.72045898,0.01171791,0.03728426,0.01171791
1704703688452078,0.05746084,0.04788403,9.72045898,-0.00532632,0.03408846,0.00000000
1704703688454096,0.06224924,0.06224924,9.70609379,-0.00745685,0.01704423,0.00213053
1704703688456095,0.05746084,0.06224924,9.72045898,0.00000000,0.01278317,-0.00639159
1704703688458146,0.06224924,0.05267244,9.71088219,-0.00532632,0.01384844,0.00532632
1704703688460098,0.05267244,0.06703765,9.71567059,-0.00745685,0.01278317,0.00852212
1704703688462111,0.05746084,0.05746084,9.72524738,-0.00319579,0.00532632,-0.00319579
1704703688464055,0.06703765,0.05746084,9.70609379,0.00106526,0.00745685,-0.01384844
1704703688466092,0.05267244,0.06224924,9.72524738,0.00000000,0.00532632,-0.00532632
1704703688468183,0.06224924,0.05746084,9.72524738,0.00000000,0.00426106,-0.00639159
1704703688470177,0.05746084,0.06224924,9.71567059,0.00213053,-0.00319579,-0.00426106
1704703688472048,0.05267244,0.06224924,9.73482418,-0.00106526,0.00000000,-0.00106526
1704703688474094,0.06224924,0.05267244,9.72045898,-0.01171791,0.00319579,-0.00532632
1704703688476101,0.05267244,0.05267244,9.72524738,-0.01171791,-0.00426106,0.00106526
1704703688478096,0.05746084,0.05267244,9.73482418,-0.01917476,-0.01278317,0.00213053
1704703688480089,0.05746084,0.04309563,9.72524738,-0.02876214,-0.00852212,0.00106526
1704703688482027,0.04788403,0.05267244,9.72524738,-0.02450108,0.00106526,-0.00426106
1704703688484087,0.06224924,0.04309563,9.73003578,-0.01384844,-0.00106526,-0.00639159
1704703688486105,0.05746084,0.03830723,9.71567059,-0.00852212,-0.00958738,-0.00958738
1704703688488059,0.05267244,0.04788403,9.72524738,-0.01810949,-0.00426106,-0.00639159
1704703688490094,0.06224924,0.03351882,9.73003578,-0.02024002,0.00106526,0.00319579
1704703688492095,0.05267244,0.04309563,9.71567059,-0.00852212,-0.00106526,0.00745685
1704703688494118,0.05267244,0.04309563,9.72524738,-0.00745685,0.00213053,0.00213053
1704703688496095,0.06224924,0.03830723,9.72045898,-0.00852212,0.00639159,0.00106526
1704703688498098,0.04788403,0.04788403,9.71088219,0.00745685,0.00426106,-0.00532632
1704703688500081,0.05746084,0.04309563,9.73003578,0.01917476,0.00426106,-0.00532632
1704703688502076,0.05746084,0.04788403,9.71088219,0.02450108,0.00319579,-0.00745685
1704703688504080,0.05267244,0.05746084,9.71088219,0.02663161,-0.00213053,0.00106526
1704703688506019,0.06224924,0.04788403,9.71567059,0.03408846,0.00319579,-0.00106526
1704703688508066,0.05267244,0.05746084,9.69651699,0.02556635,0.00213053,0.01065264
1704703688510099,0.05267244,0.05746084,9.71088219,0.02237055,-0.00532632,0.01171791
1704703688512063,0.05746084,0.05746084,9.70130539,0.00745685,-0.00319579,0.02024002
1704703688514074,0.04309563,0.05746084,9.68694019,-0.00319579,0.00958738,0.00745685
1704703688516076,0.05267244,0.05746084,9.70130539,-0.00213053,0.01384844,0.00745685
1704703688518145,0.04788403,0.05746084,9.68694019,0.00106526,0.01491370,-0.00319579
1704703688520154,0.04309563,0.05746084,9.69172859,-0.00958738,0.01171791,0.00000000
1704703688522076,0.04788403,0.05267244,9.70130539,-0.00852212,0.01597897,0.00106526
1704703688524082,0.03351882,0.04309563,9.68215179,-0.00532632,0.02982740,0.00639159
1704703688526083,0.04309563,0.05267244,9.69651699,-0.01065264,0.03621899,0.00213053
1704703688528087,0.03830723,0.04309563,9.70130539,-0.00958738,0.02556635,-0.00213053
1704703688530110,0.03351882,0.04788403,9.69651699,-0.00532632,0.03408846,-0.00852212
1704703688532036,0.03830723,0.05267244,9.70609379,-0.00852212,0.04261058,-0.00852212
1704703688534112,0.02394202,0.03830723,9.70609379,-0.00532632,0.03834952,-0.00213053
1704703688536136,0.03351882,0.05267244,9.70130539,-0.00639159,0.03728426,0.00319579
1704703688538132,0.02873042,0.03830723,9.71567059,-0.01917476,0.03834952,0.00213053
1704703688540083,0.02394202,0.03830723,9.71088219,-0.02237055,0.04154531,0.00106526
1704703688542086,0.03351882,0.04788403,9.70609379,-0.01065264,0.03728426,0.00213053
1704703688544137,0.02394202,0.02873042,9.72045898,0.00000000,0.04474111,0.00000000
1704703688546114,0.03351882,0.04788403,9.71088219,0.00426106,0.04687164,-0.00106526
1704703688548072,0.02873042,0.03830723,9.71567059,0.00106526,0.04261058,-0.00426106
1704703688550057,0.02873042,0.03351882,9.72524738,0.00106526,0.04793690,-0.00213053
1704703688552086,0.03830723,0.04788403,9.70609379,-0.00639159,0.04048005,-0.00745685
1704703688554078,0.02873042,0.02873042,9.72524738,-0.00532632,0.03195793,-0.00852212
1704703688556090,0.03830723,0.04309563,9.73003578,-0.00639159,0.03302320,-0.00958738
1704703688558112,0.03351882,0.03830723,9.72045898,-0.01171791,0.03728426,-0.01278317
1704703688560110,0.03830723,0.02394202,9.73482418,-0.03302320,0.02343582,-0.01384844
1704703688562081,0.04309563,0.04309563,9.72524738,-0.02876214,0.00852212,-0.00745685
1704703688564108,0.03830723,0.01915361,9.73482418,-0.02876214,0.01278317,-0.00106526
1704703688566113,0.04788403,0.02873042,9.73961258,-0.03408846,0.01491370,-0.00213053
1704703688568110,0.04309563,0.02873042,9.72524738,-0.04048005,0.00958738,-0.00213053
1704703688570098,0.05267244,0.01436521,9.73961258,-0.03302320,-0.00213053,0.00213053
1704703688572036,0.05746084,0.02873042,9.73961258,-0.02663161,-0.00426106,0.00000000
1704703688574089,0.05267244,0.01436521,9.73482418,-0.03302320,-0.00213053,-0.00106526
1704703688576090,0.06224924,0.02394202,9.73961258,-0.03195793,-0.00319579,0.00426106
1704703688578130,0.04788403,0.02873042,9.73961258,-0.02237055,-0.00639159,0.00745685
1704703688580087,0.05746084,0.01915361,9.73003578,-0.02982740,-0.00532632,0.00745685
1704703688582067,0.05746084,0.03351882,9.73482418,-0.03941479,-0.00319579,0.00639159
1704703688584091,0.05267244,0.02394202,9.73482418,-0.03941479,-0.00852212,0.01065264
1704703688586088,0.06224924,0.02873042,9.72524738,-0.03408846,-0.01065264,0.01278317
1704703688588076,0.04788403,0.03351882,9.73003578,-0.04900216,-0.00426106,0.00639159
1704703688590078,0.05746084,0.02873042,9.72045898,-0.05965481,-0.00426106,-0.00106526
1704703688592043,0.06224924,0.03351882,9.71567059,-0.05539375,-0.00745685,-0.00106526
1704703688594134,0.04788403,0.02394202,9.73003578,-0.04261058,-0.00745685,0.00639159
1704703688596067,0.05746084,0.03351882,9.71567059,-0.03834952,-0.00106526,0.00532632
1704703688598090,0.04309563,0.03351882,9.72045898,-0.04580637,0.00319579,0.00639159
1704703688600096,0.04788403,0.03830723,9.71567059,-0.05326322,0.00745685,-0.00213053
1704703688602164,0.05267244,0.03830723,9.70130539,-0.05006743,0.00532632,-0.00319579
1704703688604084,0.03351882,0.03830723,9.71088219,-0.03302320,-0.00532632,-0.00426106
1704703688606105,0.04788403,0.04788403,9.70130539,-0.03408846,-0.00106526,0.00000000
1704703688608078,0.03351882,0.03830723,9.69651699,-0.03728426,0.00852212,0.00319579
1704703688610117,0.02873042,0.05267244,9.69651699,-0.04261058,0.00745685,0.00532632
1704703688612071,0.03830723,0.05267244,9.68215179,-0.04261058,0.00319579,0.00319579
1704703688614067,0.02394202,0.04309563,9.68694019,-0.04261058,0.00000000,0.00106526
1704703688616087,0.02394202,0.06224924,9.68694019,-0.03621899,0.00106526,0.00000000
1704703688618126,0.02394202,0.04788403,9.68215179,-0.03834952,-0.00426106,0.00213053
1704703688620056,0.01436521,0.06224924,9.68215179,-0.03302320,0.00426106,0.00106526
1704703688622076,0.01915361,0.06703765,9.67736340,-0.03195793,0.01171791,0.00000000
1704703688624106,0.01915361,0.05267244,9.67736340,-0.03621899,0.00532632,0.00106526
1704703688626165,0.01436521,0.07182605,9.67736340,-0.03834952,-0.00213053,-0.00106526
1704703688628090,0.01436521,0.06224924,9.67736340,-0.01917476,0.00000000,0.00213053
1704703688630103,0.01436521,0.06703765,9.66299820,0.00000000,0.00958738,0.00106526
1704703688632048,0.01436521,0.08140286,9.66778660,-0.00639159,0.00639159,0.00000000
1704703688634097,0.01915361,0.06703765,9.66299820,-0.00852212,-0.00532632,-0.00426106
1704703688636095,0.01436521,0.08140286,9.64863300,0.00213053,-0.00852212,-0.00852212
1704703688638149,0.01436521,0.07661445,9.66299820,0.00958738,-0.00213053,-0.00639159
1704703688640078,0.01915361,0.07661445,9.64384460,0.00639159,-0.00319579,-0.00106526
1704703688642075,0.01436521,0.09097967,9.64384460,0.00426106,-0.00532632,0.00319579
1704703688644145,0.01915361,0.08619126,9.65342140,0.00319579,-0.00106526,0.00213053
1704703688646100,0.01915361,0.08619126,9.63905621,0.00319579,0.00213053,-0.00213053
1704703688648090,0.01436521,0.09097967,9.65342140,-0.00106526,-0.01278317,0.00000000
1704703688650082,0.01915361,0.08619126,9.64863300,0.00106526,-0.01597897,0.00319579
1704703688652086,0.01436521,0.08619126,9.63905621,-0.00319579,-0.00213053,-0.00319579
1704703688654109,0.01436521,0.09576806,9.64863300,-0.00426106,0.00106526,-0.00426106
1704703688656081,0.01915361,0.08619126,9.63426781,-0.00745685,-0.00532632,-0.00106526
1704703688658101,0.01436521,0.08140286,9.63426781,-0.00532632,-0.01171791,0.00106526
1704703688660186,0.00957681,0.08619126,9.63905621,-0.00639159,-0.00319579,-0.00106526
1704703688662074,0.01436521,0.07661445,9.62469101,-0.00745685,0.00319579,0.00213053
1704703688664070,0.00957681,0.09097967,9.62469101,-0.00319579,-0.00106526,0.00426106
1704703688666104,0.00957681,0.08140286,9.61990261,0.00106526,-0.00532632,-0.00319579
1704703688668136,0.00957681,0.07661445,9.61511421,-0.00319579,-0.00532632,-0.00639159
1704703688670251,0.00000000,0.09097967,9.62469101,-0.00213053,-0.00319579,-0.00426106
1704703688672061,0.00957681,0.07182605,9.62469101,0.00532632,-0.00426106,-0.00319579
1704703688674075,0.00478840,0.07661445,9.61032581,0.00745685,0.00213053,0.00213053
1704703688676075,0.00000000,0.08140286,9.61511421,0.00639159,0.00426106,0.00106526
1704703688678154,0.00957681,0.06224924,9.61511421,-0.00532632,0.00000000,0.00532632
1704703688680117,-0.00478840,0.07661445,9.60074902,-0.01171791,-0.00745685,0.00745685
1704703688682188,-0.00478840,0.06224924,9.61990261,-0.00319579,-0.00852212,0.00745685
1704703688684085,0.00478840,0.06224924,9.60553741,0.00106526,-0.00319579,-0.00106526
1704703688686192,-0.00957681,0.06224924,9.60074902,0.00000000,-0.00852212,-0.00213053
1704703688688315,0.00000000,0.04788403,9.61990261,-0.00852212,-0.01065264,0.00000000
1704703688690109,-0.00478840,0.04788403,9.60074902,-0.01065264,-0.00426106,0.00426106
1704703688692159,-0.00957681,0.03830723,9.61032581,-0.00745685,0.00000000,0.00106526
1704703688694149,0.00478840,0.03830723,9.60553741,-0.01278317,-0.00319579,0.00426106
1704703688696146,-0.00478840,0.03830723,9.59117222,-0.01171791,-0.00213053,0.00106526
1704703688698085,0.00000000,0.03830723,9.60553741,-0.01171791,0.00958738,0.00106526
1704703688700091,0.00478840,0.03351882,9.59117222,-0.00213053,0.01171791,0.00319579
1704703688702109,-0.00478840,0.03351882,9.59117222,0.00106526,0.00426106,0.00532632
1704703688704090,0.00957681,0.03830723,9.60553741,-0.00532632,0.00958738,0.00532632
1704703688706113,0.00000000,0.02873042,9.58638382,-0.01171791,0.02450108,0.00639159
1704703688708079,0.00478840,0.02873042,9.59596062,-0.01278317,0.03195793,0.00852212
1704703688710112,0.01436521,0.02394202,9.59596062,-0.01278317,0.02769688,0.00745685
1704703688712089,0.00000000,0.01915361,9.59117222,-0.01491370,0.02663161,0.00532632
1704703688714097,0.00957681,0.02873042,9.60553741,-0.00745685,0.02876214,0.00639159
1704703688716070,0.00957681,0.01436521,9.60074902,-0.00319579,0.03408846,0.00958738
1704703688718122,0.00957681,0.02873042,9.59117222,-0.01171791,0.04474111,0.00745685
1704703688720089,0.01915361,0.03351882,9.60074902,-0.01597897,0.03834952,0.00639159
1704703688722078,0.00957681,0.01915361,9.60074902,-0.00532632,0.03302320,0.00852212
1704703688724090,0.01915361,0.03830723,9.59596062,-0.00958738,0.03302320,0.00532632
1704703688726120,0.01436521,0.02873042,9.60553741,-0.01171791,0.03941479,0.00319579
1704703688728118,0.01915361,0.02873042,9.60074902,-0.00958738,0.04474111,0.00426106
1704703688730108,0.01915361,0.04309563,9.59596062,-0.00745685,0.04261058,0.00426106
1704703688732038,0.00957681,0.02394202,9.61511421,-0.00852212,0.04048005,-0.00106526
