timestamp,accel_x,accel_y,accel_z,gyro_x,gyro_y,gyro_z
1691765277730715,0.04788403,0.13886370,9.83059216,-0.00319579,0.00213053,0.02982740
1691765277732737,-0.01436521,0.08140286,9.84495735,-0.00319579,0.00106526,0.01491370
1691765277734779,-0.02873042,0.09097967,9.78270817,-0.00426106,-0.00319579,-0.01278317
1691765277736703,0.00000000,0.17717093,9.76834297,0.00106526,-0.00426106,-0.02450108
1691765277738721,-0.05267244,0.11971009,9.81622696,0.00319579,-0.00213053,-0.02237055
1691765277740735,-0.04309563,0.11013328,9.80665016,0.00639159,-0.00213053,-0.00532632
1691765277742757,0.04309563,0.15322891,9.81143856,-0.00319579,0.00106526,0.01810949
1691765277744752,-0.02394202,0.00000000,9.88326454,-0.00532632,0.00319579,0.03408846
1691765277746700,-0.04309563,0.02394202,9.87368774,-0.00639159,0.00106526,0.02876214
1691765277748761,0.02873042,0.22505496,9.84016895,0.00106526,-0.00213053,0.00639159
1691765277750793,-0.01915361,0.15801731,9.86411095,0.00426106,-0.00106526,-0.01278317
1691765277752769,-0.05746084,0.07661445,9.84495735,0.00106526,-0.00319579,-0.02663161
1691765277754729,0.00000000,0.10534488,9.79228497,0.00000000,-0.00426106,-0.02130529
1691765277756728,0.00478840,0.10055647,9.81622696,0.00000000,0.00106526,-0.00106526
1691765277758773,0.02394202,0.13886370,9.87847614,-0.00426106,0.00106526,0.02343582
1691765277760759,0.00478840,0.22984336,9.85453415,0.00426106,-0.00106526,0.03302320
1691765277762741,0.00478840,0.17717093,9.85453415,-0.00213053,-0.00319579,0.02343582
1691765277764738,0.02873042,0.09576806,9.84495735,-0.01597897,0.00426106,-0.00106526
1691765277766750,0.01436521,0.14844051,9.79707336,-0.00958738,-0.00213053,-0.01597897
1691765277768750,-0.03830723,0.13886370,9.83538055,0.00319579,-0.00745685,-0.02237055
1691765277770760,-0.01915361,0.18195933,9.85932255,-0.00319579,-0.00106526,-0.01171791
1691765277772772,0.07182605,0.12928689,9.85453415,0.00106526,0.00639159,0.01065264
1691765277774807,0.00000000,-0.04788403,9.85453415,-0.00106526,0.00532632,0.02876214
1691765277776755,-0.03351882,0.03830723,9.84016895,-0.01278317,-0.00106526,0.02343582
1691765277778728,0.01915361,0.18674773,9.84495735,-0.00532632,0.00106526,0.00852212
1691765277780737,-0.02394202,0.13407530,9.83538055,0.00852212,0.00106526,-0.00958738
1691765277782739,-0.02394202,0.18674773,9.79707336,0.00106526,-0.00639159,-0.02556635
1691765277784787,-0.02873042,0.10534488,9.79707336,0.00000000,-0.00106526,-0.02556635
1691765277786692,-0.04309563,-0.04788403,9.81143856,-0.00532632,0.00213053,-0.00426106
1691765277788726,0.01915361,0.10534488,9.81622696,-0.00426106,-0.00106526,0.01278317
1691765277790720,0.04309563,0.19153613,9.84016895,0.00319579,0.00532632,0.03195793
1691765277792781,0.00478840,0.05267244,9.84495735,0.00958738,0.00106526,0.03089267
1691765277794737,-0.03351882,0.04788403,9.80665016,0.00106526,-0.00532632,0.01171791
1691765277796704,-0.03351882,0.07661445,9.76834297,-0.00852212,0.00000000,-0.01278317
1691765277798743,0.00000000,0.02873042,9.80186176,-0.00532632,-0.00319579,-0.02024002
1691765277800792,-0.00478840,0.11492168,9.83059216,0.00319579,-0.00426106,-0.01810949
1691765277802743,-0.00957681,0.14365210,9.84495735,0.01171791,0.00106526,-0.00213053
1691765277804717,-0.00957681,0.01436521,9.86889935,0.00639159,0.00106526,0.01491370
1691765277806712,0.01915361,0.00000000,9.82101536,-0.00213053,0.00106526,0.01917476
1691765277808785,0.04788403,0.10534488,9.80665016,-0.00319579,0.00319579,0.01491370
1691765277810749,-0.01436521,0.08619126,9.83538055,0.00958738,-0.00745685,-0.00213053
1691765277812753,-0.04788403,0.14365210,9.82101536,0.01597897,-0.00745685,-0.01810949
1691765277814732,-0.00957681,0.13886370,9.78749657,0.01704423,-0.00319579,-0.02130529
1691765277816755,0.00000000,-0.00478840,9.79707336,0.00532632,0.00000000,-0.00852212
1691765277818723,0.01436521,0.00000000,9.82101536,0.00000000,0.00319579,0.00958738
1691765277820722,0.01915361,0.12928689,9.84495735,-0.00213053,0.00213053,0.02556635
1691765277822732,-0.02394202,0.16759412,9.87368774,0.00852212,-0.00319579,0.02556635
1691765277824749,0.00478840,0.17238252,9.83538055,0.00426106,-0.00106526,0.00745685
1691765277826747,-0.00957681,0.11492168,9.78270817,0.00319579,0.00000000,-0.01384844
1691765277828738,-0.02394202,0.06703765,9.76834297,-0.00426106,-0.00426106,-0.02769688
1691765277830735,-0.03351882,0.12449849,9.80665016,-0.00213053,0.00000000,-0.02024002
1691765277832754,0.00000000,0.20111294,9.82580376,0.00213053,0.00000000,0.00426106
1691765277834796,0.01436521,0.15801731,9.84974575,0.00532632,0.00213053,0.02556635
1691765277836707,-0.00478840,0.03830723,9.83059216,-0.00213053,0.00213053,0.02982740
1691765277838724,-0.00478840,0.04788403,9.82101536,-0.00745685,-0.00106526,0.01917476
1691765277840729,-0.04788403,0.11971009,9.81622696,-0.00852212,-0.00639159,-0.00852212
1691765277842770,-0.01436521,0.24420857,9.82101536,0.00106526,-0.00532632,-0.02450108
1691765277844744,-0.02394202,0.22026655,9.79707336,0.00745685,-0.00426106,-0.02450108
1691765277846721,-0.01436521,0.07661445,9.80186176,0.00000000,-0.00106526,-0.01065264
1691765277848717,-0.00957681,0.03351882,9.79228497,-0.01171791,0.00106526,0.01065264
1691765277850771,0.00000000,0.13407530,9.82580376,-0.01065264,0.00106526,0.02876214
1691765277852751,0.02873042,0.17717093,9.83538055,0.00106526,-0.00213053,0.02663161
1691765277854781,0.01915361,0.19153613,9.83538055,0.00745685,-0.00213053,0.00745685
1691765277856729,-0.04309563,0.11013328,9.77791977,-0.00213053,-0.00213053,-0.01810949
1691765277858794,0.00000000,0.00957681,9.74918938,-0.01171791,-0.00319579,-0.03089267
1691765277860789,-0.00478840,0.02873042,9.78270817,-0.01171791,0.00213053,-0.02556635
1691765277862733,0.02873042,0.12449849,9.80665016,-0.00426106,0.00106526,-0.00213053
1691765277864734,0.04309563,0.12449849,9.83538055,0.00213053,0.00213053,0.02024002
1691765277866721,-0.02873042,0.05746084,9.84974575,-0.00532632,0.00106526,0.02769688
1691765277868761,0.00478840,0.02394202,9.80186176,-0.01065264,0.00532632,0.02024002
1691765277870776,0.03830723,0.05267244,9.81143856,-0.00958738,0.00426106,0.00319579
1691765277872749,-0.03830723,0.14844051,9.82101536,0.00532632,-0.00106526,-0.01597897
1691765277874822,-0.05267244,0.20111294,9.84016895,0.01384844,-0.00426106,-0.02663161
1691765277876737,-0.05267244,0.11013328,9.83059216,0.01171791,-0.00106526,-0.01384844
1691765277878742,-0.01436521,0.01915361,9.81143856,-0.00106526,0.00639159,0.00532632
1691765277880729,0.01436521,0.04309563,9.83059216,-0.00213053,0.00319579,0.02237055
1691765277882734,-0.02873042,0.08140286,9.86889935,0.00213053,0.00106526,0.02556635
1691765277884832,-0.08619126,0.14365210,9.86411095,0.01384844,-0.00639159,0.01065264
1691765277886764,-0.04788403,0.14365210,9.81622696,0.01171791,-0.00639159,-0.01065264
1691765277888722,-0.00957681,0.02394202,9.76834297,0.01065264,-0.00426106,-0.02556635
1691765277890778,-0.05746084,-0.03830723,9.80665016,0.00426106,-0.00213053,-0.01917476
1691765277892805,-0.09097967,0.08140286,9.82580376,0.01065264,-0.00426106,0.00319579
1691765277894769,-0.03830723,0.11492168,9.87368774,0.01171791,-0.00106526,0.02769688
1691765277896736,-0.15322891,0.11013328,9.87847614,0.00532632,-0.00106526,0.03195793
1691765277898756,-0.10055647,0.05746084,9.84495735,-0.00745685,-0.00426106,0.02343582
1691765277900831,-0.11971009,0.08619126,9.85453415,-0.00958738,0.00000000,-0.00106526
1691765277902742,-0.11013328,0.21068975,9.86411095,-0.00532632,-0.00426106,-0.02556635
1691765277904723,-0.09576806,0.25378537,9.86889935,0.00532632,-0.00639159,-0.03089267
1691765277906693,-0.09576806,0.12449849,9.87368774,0.01065264,-0.00106526,-0.01278317
1691765277908764,-0.04788403,0.04309563,9.84495735,0.00106526,0.00745685,0.01065264
1691765277910792,-0.03830723,0.10055647,9.85453415,-0.00532632,0.00532632,0.03089267
1691765277912723,-0.03351882,0.12449849,9.84974575,-0.00852212,0.00532632,0.03089267
1691765277914720,-0.04788403,0.23463176,9.82101536,-0.01704423,0.00000000,0.01491370
1691765277916730,0.04788403,0.21547815,9.87368774,-0.06391586,-0.00319579,-0.00532632
1691765277918931,-0.05746084,-0.01915361,9.92636013,-0.04687164,0.00532632,-0.01491370
1691765277920747,-0.00478840,0.26336220,10.04607010,0.08309063,0.00745685,0.00319579
1691765277922735,0.10055647,0.19632454,10.08437729,0.13422331,0.00532632,-0.00319579
1691765277924723,0.02394202,0.11971009,10.14662647,0.08628642,0.00852212,-0.02343582
1691765277926755,0.00000000,0.03830723,10.06522369,0.06285060,0.00745685,-0.09693906
1691765277928738,0.16280572,0.13407530,10.04607010,0.02769688,0.00852212,-0.12783173
1691765277930717,0.22984336,0.29688102,10.10831928,-0.02982740,0.03089267,-0.11930962
1691765277932715,0.26336220,0.32082301,10.17535686,0.01597897,0.06711166,-0.08522116
1691765277934857,0.32561144,0.22505496,10.20887566,0.00213053,0.09267800,-0.01597897
1691765277936722,0.42616791,0.03830723,10.20887566,-0.07563377,0.11930962,0.02982740
1691765277938728,0.56981999,0.07661445,10.24718285,-0.05432849,0.16298546,0.05113269
1691765277940709,0.72304893,0.21547815,10.23760605,-0.08522116,0.20133498,0.08948221
1691765277942799,0.55066639,0.12928689,10.25675964,-0.06711166,0.25779399,0.12250541
1691765277944754,0.65601128,0.41659111,10.23281765,-0.06072007,0.30786142,0.13848437
1691765277946694,0.63206923,0.36870706,10.23281765,-0.08096009,0.40266997,0.13741912
1691765277948756,0.27772740,0.09097967,10.23760605,-0.11291803,0.49960902,0.14274544
1691765277950808,0.01915361,0.00478840,10.19451046,-0.15020229,0.61998391,0.13102752
1691765277952761,0.10534488,-0.08619126,10.22802925,-0.19707392,0.71159667,0.14487596
1691765277954773,-0.11971009,-0.09576806,10.33816338,-0.27696875,0.75633776,0.17896442
1691765277956702,-0.29209262,-0.21068975,10.25675964,-0.33875409,0.80640519,0.19600865
1691765277958818,0.10534488,-0.27772740,10.43393135,-0.37923414,0.82238412,0.17683390
1691765277960759,-0.05267244,-0.11013328,10.83136845,-0.40160468,0.79894835,0.14700650
1691765277962752,0.02873042,-0.09576806,10.77869606,-0.42290998,0.76485986,0.18535601
1691765277964718,0.10055647,-0.04788403,11.00853920,-0.41332260,0.75527251,0.19281286
1691765277966716,0.06224924,0.06224924,11.22401714,-0.37816888,0.71798825,0.18216021
1691765277968760,0.36391866,0.12928689,11.10909557,-0.36538571,0.70200926,0.20453078
1691765277970744,-0.03351882,0.05267244,11.41076565,-0.36112463,0.70946610,0.23861924
1691765277972722,0.11971009,0.11013328,11.30542088,-0.32170987,0.68709558,0.20666130
1691765277974752,0.43574470,0.26815060,11.56878281,-0.30146983,0.66365975,0.21624868
1691765277976807,-0.14365210,0.15322891,11.81299114,-0.28549087,0.67750818,0.22477080
1691765277978728,0.34955344,0.00478840,11.73637676,-0.23116238,0.64128917,0.21944447
1691765277980768,0.05746084,0.01436521,12.20085144,-0.24501082,0.64874601,0.19600865
1691765277982738,0.07182605,-0.08140286,12.06198788,-0.27270770,0.64022392,0.20240024
1691765277984796,0.35913026,-0.09576806,12.31098557,-0.24501082,0.62744075,0.20666130
1691765277986720,-0.28730419,0.02873042,12.40675354,-0.22050974,0.62531024,0.18109496
1691765277988734,0.42616791,0.02873042,12.38759995,-0.26205504,0.62317967,0.16192019
1691765277990758,-0.10534488,-0.13886370,12.63659668,-0.25459820,0.59867859,0.17363811
1691765277992776,0.17717093,-0.05267244,12.43548393,-0.22690132,0.58056909,0.16831177
1691765277994836,0.27293900,0.00000000,12.67011547,-0.22370553,0.55393749,0.15020229
1691765277996696,-0.16759412,0.00478840,12.61265469,-0.23329291,0.53795856,0.14807175
1691765277998777,0.55066639,-0.03351882,12.73715305,-0.20772657,0.52411008,0.16085494
1691765278000833,-0.28251579,-0.10534488,12.62701988,-0.17789917,0.49215218,0.14168017
1691765278002805,0.48841715,0.15322891,12.67011547,-0.19281286,0.48149952,0.14700650
1691765278004807,-0.10055647,-0.18674773,12.74194145,-0.20453078,0.46232477,0.15552860
1691765278006711,0.08140286,-0.11013328,12.56477070,-0.20772657,0.44634581,0.14487596
1691765278008799,0.51714754,-0.00478840,12.73236465,-0.18535601,0.42077947,0.14061491
1691765278010789,-0.17238252,-0.24899697,12.49773312,-0.16405073,0.38562572,0.12357067
1691765278012810,0.63206923,0.12928689,12.83770943,-0.18642128,0.35260254,0.10226539
1691765278014724,-0.25378537,-0.14844051,12.58871269,-0.21837921,0.31425300,0.10865697
1691765278016769,0.59855044,0.12928689,12.67969227,-0.21518342,0.27057716,0.11930962
1691765278018763,-0.01436521,-0.16759412,12.74194145,-0.22583605,0.24501082,0.11504856
1691765278020892,0.25857377,-0.17238252,12.45463753,-0.25246766,0.23861924,0.11611383
1691765278022729,0.52672440,0.25378537,12.81376743,-0.25246766,0.23116238,0.12570120
1691765278024766,-0.22984336,-0.15801731,12.46421432,-0.23329291,0.22690132,0.11398330
1691765278026747,0.66079968,0.28730419,12.78503704,-0.22796659,0.22050974,0.10013486
1691765278028744,-0.20111294,-0.09097967,12.78503704,-0.23968449,0.19813919,0.10439591
1691765278030720,0.49799395,0.10055647,12.83770943,-0.23648870,0.18855180,0.10013486
1691765278032740,0.00478840,0.18195933,13.01488018,-0.23435818,0.17150757,0.08415589
1691765278034945,0.16759412,0.00957681,12.78024864,-0.21944447,0.12570120,0.07030746
1691765278036739,0.45968673,0.32561144,13.14895535,-0.20666130,0.07243798,0.05219796
1691765278038864,-0.21547815,-0.03830723,12.91432381,-0.18855180,0.06285060,0.04367584
1691765278040743,0.76135612,0.21068975,13.01009178,-0.15765914,0.02982740,0.04474111
1691765278042946,-0.09097967,0.27772740,12.81855583,-0.14274544,-0.01491370,0.03941479
1691765278044796,0.47405192,0.18674773,12.72278786,-0.12889700,-0.06391586,0.05113269
1691765278046704,0.12928689,0.32561144,12.67011547,-0.11078750,-0.07989483,0.03941479
1691765278048784,0.23942018,0.10534488,12.37802315,-0.09906960,-0.10333065,0.03408846
1691765278050782,0.40701428,0.26815060,12.33013916,-0.08841695,-0.12144014,0.02663161
1691765278052814,-0.16280572,0.25378537,12.00931549,-0.05113269,-0.15872440,0.04048005
1691765278054718,0.58897364,0.14365210,11.88481712,-0.03515373,-0.16192019,0.02237055
1691765278056754,0.00478840,0.29209262,11.64539719,-0.02450108,-0.19387813,0.02343582
1691765278058798,0.38307226,0.03351882,11.32457447,-0.01491370,-0.21731395,0.01384844
1691765278060804,0.09097967,0.12928689,11.25753593,0.00745685,-0.23009712,0.02450108
1691765278062779,-0.03830723,0.29688102,11.01332760,0.04687164,-0.24501082,0.01278317
1691765278064742,0.56503159,0.23463176,10.92713642,0.07030746,-0.25566345,0.00958738
1691765278066761,-0.23463176,0.39264908,10.86009884,0.08309063,-0.26951191,0.01278317
1691765278068771,0.28251579,0.13886370,10.51533413,0.08735169,-0.26312032,0.00958738
1691765278070761,0.16759412,-0.05267244,10.61589050,0.08415589,-0.26738137,0.00426106
1691765278072715,-0.11492168,0.02394202,10.47702694,0.08735169,-0.28549087,0.00852212
1691765278074743,0.40222588,-0.00478840,10.22324085,0.09054748,-0.32064459,0.01065264
1691765278076655,-0.10055647,-0.04788403,10.44829655,0.09161274,-0.35260254,0.00639159
1691765278078741,0.28251579,0.15322891,10.12747288,0.10333065,-0.37071201,-0.00639159
1691765278080810,0.48362875,0.18674773,10.25197124,0.11824435,-0.40586576,0.00319579
1691765278082749,-0.12928689,0.18195933,10.18972206,0.13102752,-0.41119206,0.00213053
1691765278084815,0.48841715,0.29688102,9.84495735,0.15552860,-0.43995422,0.01171791
1691765278086651,0.05746084,0.09097967,10.07958889,0.16831177,-0.42397526,-0.00426106
1691765278088725,0.03830723,0.25857377,9.71567059,0.18109496,-0.41864893,-0.00319579
1691765278090744,0.43574470,0.22026655,9.71088219,0.18109496,-0.41545314,-0.00639159
1691765278092832,-0.23942018,-0.07661445,9.92157173,0.18429075,-0.38988680,-0.00958738
1691765278094777,0.17238252,0.20111294,9.51934624,0.19494340,-0.38136467,0.00639159
1691765278096763,0.10534488,0.11971009,9.85453415,0.21092236,-0.35579833,-0.00532632
1691765278098751,-0.27772740,0.09576806,9.73003578,0.22583605,-0.35366780,0.01704423
1691765278100804,0.24899697,0.26815060,9.51455784,0.23968449,-0.36112463,0.00745685
1691765278102749,-0.05746084,0.08619126,9.84974575,0.25779399,-0.35260254,0.01278317
1691765278104737,-0.08140286,0.22505496,9.51934624,0.26525083,-0.37390780,0.00319579
1691765278106639,0.30166942,0.20590134,9.60553741,0.26098979,-0.38882151,0.00852212
1691765278108881,-0.16759412,0.00957681,9.67257500,0.25779399,-0.41012681,0.00426106
1691765278110794,0.41659111,0.14365210,9.64863300,0.27696875,-0.42077947,-0.00319579
1691765278112725,0.30645782,0.08140286,9.72045898,0.27483824,-0.43356264,-0.00532632
1691765278114769,-0.13886370,-0.03830723,9.65820980,0.28122982,-0.47084689,-0.00319579
1691765278116713,0.35913026,0.19632454,9.68215179,0.27164242,-0.47617319,-0.00532632
1691765278118774,0.11971009,-0.02873042,9.85932255,0.28975192,-0.50600058,-0.00852212
1691765278120749,-0.02394202,0.03830723,9.73003578,0.27909929,-0.52304482,-0.01491370
1691765278122714,0.40222588,0.15322891,9.84974575,0.26525083,-0.53263223,-0.02130529
1691765278124745,-0.10534488,-0.22984336,9.85932255,0.25566345,-0.54754591,-0.01704423
1691765278126741,0.14844051,-0.00957681,9.75876617,0.24714135,-0.56565541,-0.01597897
1691765278128741,0.27772740,-0.13407530,9.92157173,0.24501082,-0.58056909,-0.01491370
1691765278130725,-0.16759412,-0.22505496,9.83059216,0.25033715,-0.58909124,-0.00958738
1691765278132749,0.32561144,0.05267244,9.77313137,0.24927188,-0.63063657,-0.01278317
1691765278134760,0.17717093,-0.24420857,9.83538055,0.23009712,-0.69348717,-0.02450108
1691765278136724,0.12449849,-0.03830723,9.50976944,0.20985709,-0.76699042,-0.03728426
1691765278138732,0.47405192,0.10534488,9.67736340,0.22050974,-0.82557994,-0.02450108
1691765278140746,0.12928689,0.03351882,9.36132908,0.26098979,-0.85966837,0.00745685
1691765278142692,0.35913026,0.31603462,9.08360100,0.30679616,-0.86605996,0.02343582
1691765278144811,0.30166942,0.35434186,9.32302189,0.41012681,-0.88203895,0.07669904
1691765278146702,0.04788403,0.37828386,8.91600704,0.44208473,-0.87777787,0.08522116
1691765278148758,0.18674773,0.60812724,8.96389103,0.53689325,-0.83942837,0.07350325
1691765278150808,-0.00478840,0.52672440,9.07402420,0.60826600,-0.77231669,0.07243798
1691765278152827,-0.12449849,0.45489833,8.69095230,0.69348717,-0.67537767,0.04687164
1691765278154918,-0.17238252,0.37828386,8.85854626,0.74888092,-0.58802599,-0.01065264
1691765278156701,-0.28251579,0.30645782,8.76277828,0.76059878,-0.50067431,-0.04900216
1691765278158859,-0.24420857,0.37828386,8.78193188,0.73716301,-0.36112463,-0.04154531
1691765278160826,-0.41180268,-0.06224924,8.81545067,0.69455242,-0.27270770,-0.04687164
1691765278162875,-0.32561144,0.11492168,8.80108547,0.65726817,-0.21198763,-0.02130529
1691765278164728,-0.53151280,-0.13407530,9.18894577,0.53582799,-0.13422331,-0.02556635
1691765278166724,-0.56503159,-0.64164603,8.84418106,0.46019423,-0.09374327,0.01704423
1691765278168749,-0.23463176,-0.22984336,9.00698662,0.37071201,-0.06072007,0.04367584
1691765278170751,-0.41659111,-0.64643449,9.38527107,0.27377295,-0.02982740,-0.01065264
1691765278172725,-0.18674773,-0.44532153,9.05008221,0.15552860,-0.05219796,0.01278317
1691765278174750,-0.12449849,-0.41659111,9.34217548,0.09480853,-0.05539375,-0.02556635
1691765278176870,-0.16759412,-0.71826053,9.38048267,0.08202536,-0.07669904,-0.03089267
1691765278178748,0.11971009,-0.16280572,9.30386734,0.05113269,-0.13209279,-0.06391586
1691765278180796,-0.14844051,-0.51714754,9.80186176,-0.00106526,-0.16831177,-0.03089267
1691765278182741,0.08619126,-0.31124622,9.66299820,-0.02663161,-0.19813919,-0.02556635
1691765278184796,0.28251579,-0.30645782,9.75397778,-0.06817693,-0.22477080,-0.06178534
1691765278186751,-0.05746084,-0.20111294,10.07958889,-0.14061491,-0.24714135,-0.02130529
1691765278188728,0.00957681,-0.02394202,9.94551373,-0.09906960,-0.24820662,0.00745685
1691765278190757,-0.19153613,-0.35434186,9.98382092,-0.06178534,-0.17896442,-0.00852212
1691765278192758,0.01915361,0.40701428,10.06043530,-0.11078750,-0.17363811,-0.02024002
1691765278194880,-0.20590134,-0.10534488,10.01255131,-0.04580637,-0.15233281,0.01597897
1691765278196709,-0.24899697,-0.11971009,10.06522369,-0.02982740,-0.08628642,-0.02130529
1691765278198869,0.11971009,0.60812724,9.89762974,-0.04154531,-0.04261058,-0.02024002
1691765278200886,-0.23942018,-0.11971009,10.08437729,-0.01384844,-0.01065264,-0.02130529
1691765278202750,-0.17717093,0.16280572,10.13704967,-0.00639159,0.02130529,0.01065264
1691765278204812,-0.18674773,0.13407530,9.97903252,-0.02024002,0.07563377,0.00106526
1691765278206704,-0.12449849,0.11492168,10.14662647,-0.03621899,0.09480853,0.00000000
1691765278208774,-0.10055647,0.20111294,10.09874249,-0.03834952,0.09800433,-0.00319579
1691765278210728,-0.22505496,0.14844051,10.09874249,-0.05113269,0.10972223,-0.00852212
1691765278212733,-0.04788403,0.33518824,10.18493366,-0.07350325,0.11504856,-0.02024002
1691765278214719,0.00478840,0.06224924,10.12747288,-0.07350325,0.09374327,-0.02982740
1691765278216835,-0.22505496,-0.03351882,10.18972206,-0.08735169,0.06285060,-0.03302320
1691765278218749,-0.07661445,-0.02394202,10.15620327,-0.08522116,0.04048005,-0.02982740
1691765278220826,0.27772740,0.29688102,10.13226128,-0.09693906,0.02876214,-0.03515373
1691765278222733,-0.28251579,-0.10534488,10.22802925,-0.10759171,-0.00745685,-0.03195793
1691765278224752,-0.13407530,-0.06703765,10.15620327,-0.09054748,-0.01917476,-0.02237055
1691765278226753,0.07661445,0.29209262,10.14662647,-0.10546118,-0.02343582,0.00106526
1691765278228717,-0.31603462,-0.04309563,10.17535686,-0.10759171,-0.02982740,-0.00213053
1691765278230725,0.32561144,0.34476504,10.06043530,-0.08948221,-0.02130529,-0.01278317
1691765278232749,0.09576806,0.31124622,10.11310768,-0.07989483,-0.01065264,-0.00745685
1691765278234799,0.09097967,0.13886370,10.09874249,-0.08309063,0.00532632,-0.02450108
1691765278236710,0.07182605,0.18674773,10.12747288,-0.07776430,0.02769688,-0.03089267
1691765278238871,-0.29688102,0.04788403,10.11789608,-0.08202536,0.04474111,-0.02769688
1691765278240743,0.15801731,0.29209262,10.01733971,-0.12357067,0.08522116,-0.03089267
1691765278242804,0.04788403,0.10534488,10.09874249,-0.13422331,0.09480853,-0.02237055
1691765278244767,-0.17238252,0.13886370,10.07480049,-0.14487596,0.11611383,-0.01704423
1691765278246654,0.04309563,0.15322891,9.98860931,-0.15020229,0.11930962,-0.02769688
1691765278248804,-0.26815060,-0.07182605,10.16578007,-0.14913702,0.12037488,-0.03834952
1691765278250832,-0.01915361,0.15322891,9.96466732,-0.14274544,0.10226539,-0.03941479
1691765278252772,0.05746084,0.00000000,10.17056847,-0.14487596,0.08202536,-0.03089267
1691765278254734,-0.09097967,0.01436521,10.20887566,-0.15339808,0.07776430,-0.03941479
1691765278256704,0.31124622,0.27293900,10.13704967,-0.15020229,0.03089267,-0.01810949
1691765278258789,0.22505496,-0.00957681,10.25675964,-0.15233281,0.02237055,-0.02876214
1691765278260782,-0.30645782,-0.01915361,10.11310768,-0.15126754,-0.00213053,-0.01704423
1691765278262727,0.38307226,0.19632454,10.18972206,-0.13848437,-0.03408846,-0.01491370
1691765278264719,-0.27772740,0.03351882,10.24718285,-0.14274544,-0.05432849,-0.00639159
1691765278266750,0.41180268,0.25857377,10.25197124,-0.12889700,-0.07669904,0.00852212
1691765278268815,0.41659111,0.32082301,10.43871975,-0.12357067,-0.08628642,0.01278317
1691765278270748,-0.32082301,0.19153613,10.30464458,-0.11398330,-0.09906960,-0.00426106
1691765278272719,0.30166942,0.41659111,10.24239445,-0.10439591,-0.08202536,-0.00106526
1691765278274754,-0.31124622,0.17238252,10.36210537,-0.09267800,-0.08735169,-0.00639159
1691765278276724,-0.05746084,0.09576806,10.21845245,-0.08628642,-0.08096009,-0.02024002
1691765278278825,-0.19153613,0.06224924,10.55842972,-0.08735169,-0.05006743,-0.02024002
1691765278280727,-0.34476504,0.01436521,10.45787334,-0.08096009,-0.04154531,-0.00745685
1691765278282846,0.17717093,0.45489833,10.19929886,-0.08096009,-0.02876214,-0.01065264
1691765278284805,-0.38307226,-0.19632454,10.54885292,-0.07243798,-0.01810949,0.00532632
1691765278286714,-0.31603462,0.06224924,10.22324085,-0.08841695,0.00532632,0.01065264
1691765278288770,-0.09576806,0.16280572,10.52012253,-0.08948221,0.02556635,0.02024002
1691765278290752,-0.38307226,-0.32082301,10.49139214,-0.09374327,0.04048005,0.02237055
1691765278292795,-0.02873042,0.00957681,10.18972206,-0.11398330,0.06498113,0.01278317
1691765278294960,-0.04309563,0.05746084,10.48660374,-0.13209279,0.08309063,0.00532632
1691765278296743,-0.11492168,-0.01436521,10.20408726,-0.14487596,0.12676647,0.00213053
1691765278298731,0.07661445,0.28730419,10.24239445,-0.14700650,0.12463594,0.00213053
1691765278300846,-0.13407530,-0.00957681,10.50096893,-0.15339808,0.12250541,-0.01065264
1691765278302795,0.01915361,0.20111294,10.20887566,-0.15126754,0.10759171,-0.00958738
1691765278304775,-0.00478840,-0.04309563,10.37647057,-0.13741912,0.09693906,-0.00852212
1691765278306727,0.09097967,0.24420857,10.19929886,-0.13848437,0.07776430,-0.01171791
1691765278308736,0.15801731,0.18674773,10.14662647,-0.14274544,0.04367584,-0.00639159
1691765278310813,-0.11013328,-0.20111294,10.36210537,-0.15339808,0.01597897,0.00745685
1691765278312736,0.07661445,0.22026655,10.18014526,-0.14700650,0.00213053,0.01384844
1691765278314734,0.15322891,-0.11492168,10.42914295,-0.13528858,-0.03728426,0.02982740
1691765278316805,0.01436521,-0.04788403,10.39562416,-0.14061491,-0.05858954,0.02450108
1691765278318821,0.06703765,0.23942018,10.09874249,-0.13315806,-0.06711166,0.02237055
1691765278320735,0.07182605,-0.11971009,10.39562416,-0.11717909,-0.05539375,0.00958738
1691765278322753,-0.06703765,0.21068975,10.19929886,-0.11717909,-0.06498113,0.00745685
1691765278324735,0.24420857,0.32082301,10.11789608,-0.11717909,-0.04793690,0.01278317
1691765278326777,0.00957681,0.05267244,10.26633644,-0.10439591,-0.03408846,0.01278317
1691765278328762,0.16280572,0.43095630,9.90720654,-0.09480853,-0.01384844,0.01171791
1691765278330736,0.10534488,0.11971009,10.09874249,-0.09054748,-0.01065264,0.01384844
1691765278332758,-0.20590134,0.11492168,10.05564690,-0.07882957,0.00426106,0.02024002
1691765278334799,-0.02873042,0.23463176,9.86889935,-0.06924219,0.01917476,0.02130529
1691765278336753,-0.19632454,-0.14365210,10.13226128,-0.07563377,0.02450108,0.01278317
1691765278338732,-0.07661445,0.16759412,9.85932255,-0.07776430,0.04367584,0.01704423
1691765278340770,0.11971009,0.06703765,9.94072533,-0.09267800,0.04900216,0.01065264
1691765278342777,-0.01436521,-0.03351882,9.99818611,-0.08415589,0.04154531,0.00852212
1691765278344859,0.17238252,0.38307226,9.86411095,-0.08628642,0.03621899,-0.01384844
1691765278346710,-0.01436521,-0.01436521,10.09874249,-0.06711166,0.03195793,-0.01278317
1691765278348746,-0.02873042,0.22505496,9.92636013,-0.05219796,0.02876214,-0.00852212
1691765278350809,0.04309563,0.28251579,9.95987892,-0.04154531,0.01917476,-0.00745685
1691765278352753,-0.15801731,-0.22026655,10.11789608,-0.03195793,0.01384844,0.00639159
1691765278354841,0.08140286,0.36391866,9.99818611,-0.01384844,0.00106526,0.00426106
1691765278356710,0.09097967,0.10534488,10.10353088,0.01491370,-0.01917476,0.01597897
1691765278358790,0.06224924,0.11013328,10.08437729,0.02769688,-0.02556635,0.01065264
1691765278360753,0.14365210,0.62249243,9.98860931,0.02556635,-0.02237055,0.00852212
1691765278362795,-0.03351882,-0.00478840,9.99818611,0.01171791,-0.00958738,-0.00106526
1691765278364731,0.03351882,0.45489833,9.88805294,0.00639159,-0.00639159,-0.00426106
1691765278366710,-0.01915361,0.26815060,9.92636013,-0.00745685,-0.00106526,0.00000000
1691765278368802,0.08140286,0.29209262,9.86411095,-0.02556635,0.01384844,0.00639159
1691765278370734,0.07182605,0.38307226,9.89284134,-0.02450108,0.02130529,0.02556635
1691765278372752,-0.08140286,-0.16759412,9.96945572,-0.03302320,0.02130529,0.02769688
1691765278374745,-0.00478840,0.02873042,9.90720654,-0.03515373,0.02130529,0.03089267
1691765278376774,0.06703765,0.45489833,9.96945572,-0.03302320,0.01384844,0.02237055
1691765278378763,-0.08619126,-0.16280572,9.92636013,-0.03834952,0.00106526,0.02343582
1691765278380735,0.18674773,0.47405192,9.86411095,-0.03728426,-0.00852212,0.01810949
1691765278382737,-0.07182605,0.13407530,9.97424412,-0.02024002,-0.02982740,0.02343582
1691765278384806,-0.00957681,-0.20590134,9.84974575,0.00426106,-0.04687164,0.02450108
1691765278386718,0.12928689,0.57460839,9.93114853,-0.00319579,-0.06285060,0.02024002
1691765278388733,-0.13407530,-0.03830723,9.92157173,0.04261058,-0.07563377,0.02450108
1691765278390754,0.21547815,0.22984336,9.84974575,0.06604639,-0.08522116,0.02769688
1691765278392803,0.02873042,0.50278234,9.94072533,0.08522116,-0.08841695,0.02556635
1691765278394808,-0.04309563,-0.19632454,9.87368774,0.10865697,-0.09267800,0.01810949
1691765278396719,0.21547815,0.37828386,9.96945572,0.13422331,-0.09587380,0.00745685
1691765278398730,-0.04788403,-0.06703765,9.95509052,0.10972223,-0.09374327,-0.00852212
1691765278400772,0.15322891,-0.16759412,9.88805294,0.09161274,-0.08522116,-0.01384844
1691765278402769,0.10055647,0.34955344,10.03170490,0.08948221,-0.07882957,0.01065264
1691765278404825,-0.13407530,-0.31124622,9.88326454,0.06604639,-0.06817693,0.01704423
1691765278406711,0.24899697,0.31124622,9.80186176,0.07350325,-0.06604639,0.03302320
1691765278408785,-0.13886370,0.19153613,9.94072533,0.06924219,-0.06072007,0.04687164
1691765278410786,-0.07661445,-0.33997664,9.71567059,0.04474111,-0.05113269,0.04474111
1691765278412782,0.23463176,0.21068975,9.86889935,0.01810949,-0.05645901,0.04367584
1691765278414731,-0.25857377,-0.47884035,9.93114853,-0.02130529,-0.07669904,0.05432849
1691765278416742,0.21068975,-0.31603462,9.84495735,-0.06391586,-0.08948221,0.06072007
1691765278418743,0.08140286,-0.03351882,10.28070164,-0.10652644,-0.08841695,0.05645901
1691765278420759,-0.12449849,-0.60333884,10.06522369,-0.12250541,-0.10972223,0.05752428
1691765278422735,0.48362875,0.08619126,10.17056847,-0.16192019,-0.13209279,0.05219796
1691765278424750,-0.23463176,-0.11013328,10.47223854,-0.19068234,-0.13528858,0.04900216
1691765278426757,0.27772740,-0.20111294,10.18014526,-0.20453078,-0.15126754,0.04580637
1691765278428734,0.35434186,0.04788403,10.53927612,-0.21837921,-0.16937704,0.05645901
1691765278430730,-0.21547815,-0.33518824,10.38125896,-0.20559603,-0.19387813,0.04580637
1691765278432734,0.50757074,0.05746084,10.39083576,-0.19600865,-0.19174761,0.04900216
1691765278434921,-0.08140286,0.14365210,10.59673691,-0.15659387,-0.20240024,0.06391586
1691765278436717,0.22984336,0.06224924,10.15620327,-0.07882957,-0.22690132,0.07882957
1691765278438768,0.31124622,0.45489833,10.40998936,-0.06285060,-0.22583605,0.06924219
1691765278440743,-0.20111294,0.29209262,10.25675964,-0.03728426,-0.22050974,0.05645901
1691765278442782,0.43095630,0.25857377,10.04607010,0.01810949,-0.22903186,0.05113269
1691765278444792,-0.16759412,0.53151280,10.36210537,0.05432849,-0.22690132,0.05006743
1691765278446658,-0.02394202,0.26815060,9.89762974,0.09693906,-0.22583605,0.05113269
1691765278448777,0.20590134,0.49799395,10.11789608,0.13848437,-0.22583605,0.06391586
1691765278450792,-0.33039984,0.24420857,10.08916569,0.16831177,-0.21092236,0.05965481
1691765278452773,0.27772740,0.66558808,9.90720654,0.20240024,-0.21518342,0.07456851
1691765278454732,0.01915361,0.61770403,10.17535686,0.23009712,-0.21198763,0.08415589
1691765278456717,-0.28251579,0.03830723,9.74440098,0.24820662,-0.18961707,0.08841695
1691765278458810,0.28251579,0.59855044,9.79228497,0.26631612,-0.17789917,0.07776430
1691765278460832,-0.21547815,0.47405192,10.00297451,0.28868666,-0.17789917,0.07776430
1691765278462756,-0.08619126,-0.07182605,9.52892303,0.28016454,-0.14913702,0.06924219
1691765278464767,0.06703765,0.60812724,9.94551373,0.29507825,-0.13315806,0.06391586
1691765278466766,-0.41659111,-0.09097967,9.74440098,0.31425300,-0.12037488,0.06285060
1691765278468728,0.15322891,0.17238252,9.63905621,0.30999196,-0.10652644,0.05858954
1691765278470734,-0.20111294,0.34955344,10.01733971,0.31212249,-0.10013486,0.05645901
1691765278472826,-0.17717093,-0.30645782,9.50976944,0.31851408,-0.08948221,0.06817693
1691765278474865,-0.09576806,0.47405192,10.00776291,0.33555830,-0.10333065,0.06711166
1691765278476737,-0.34476504,0.03351882,9.86411095,0.32810146,-0.10546118,0.06285060
1691765278478903,0.03830723,0.05267244,9.50976944,0.31957933,-0.11185277,0.05965481
1691765278480735,-0.18195933,0.00000000,9.85453415,0.30786142,-0.09906960,0.06391586
1691765278482844,-0.37828386,-0.33039984,9.61032581,0.31425300,-0.09267800,0.06285060
1691765278484843,0.23463176,0.26336220,9.64863300,0.31744879,-0.07243798,0.06285060
1691765278486714,-0.14365210,0.04788403,9.83538055,0.33342776,-0.06285060,0.06604639
1691765278488789,-0.16280572,-0.25857377,9.50498104,0.31851408,-0.04474111,0.05432849
1691765278490731,0.22984336,0.42616791,9.76834297,0.30786142,-0.03621899,0.06498113
1691765278492812,-0.25857377,-0.05746084,9.69651699,0.29827404,-0.03621899,0.06391586
1691765278494893,0.02394202,0.22505496,9.52413464,0.31744879,-0.04048005,0.06817693
1691765278496729,-0.29688102,-0.10055647,9.74918938,0.31105721,-0.04900216,0.04900216
1691765278498760,-0.33039984,-0.22984336,9.59117222,0.30999196,-0.05113269,0.05539375
1691765278500852,0.13886370,0.17717093,9.63905621,0.30999196,-0.07243798,0.05432849
1691765278502745,-0.29209262,-0.10534488,9.69172859,0.30786142,-0.07030746,0.05113269
1691765278504818,-0.18674773,0.00957681,9.54807663,0.31425300,-0.08202536,0.04900216
1691765278506711,-0.11492168,-0.22984336,9.90241814,0.32916671,-0.08522116,0.05326322
1691765278508735,-0.36391866,-0.15322891,9.76834297,0.34621096,-0.07137272,0.05432849
1691765278510780,0.18674773,0.50278234,9.64863300,0.40799627,-0.05645901,0.07563377
1691765278512765,0.07661445,0.52672440,9.84974575,0.49428269,-0.03621899,0.11185277
1691765278514733,-0.50757074,0.55066639,9.79228497,0.60507017,0.04367584,0.12676647
1691765278516744,-0.01436521,0.92895025,9.84016895,0.73609775,0.13315806,0.14381070
1691765278518785,-0.58897364,0.90500826,10.26154804,0.84795052,0.25672874,0.09267800
1691765278520786,-0.23463176,0.78529817,9.99339771,0.88949579,0.34301513,0.07137272
1691765278522735,-0.35913026,0.25378537,10.04128170,0.95021588,0.41545314,0.04687164
1691765278524760,-0.35434186,0.63685763,9.89762974,0.97258645,0.46765110,0.09267800
1691765278526751,-0.22984336,0.05267244,9.93593693,0.91825795,0.50919640,0.08096009
1691765278528789,-0.48841715,-0.23463176,9.94551373,0.88630003,0.53369749,0.18429075
1691765278530763,-0.16759412,-0.08140286,9.63905621,0.84049362,0.51665324,0.13422331
1691765278532781,-0.33518824,-0.69431847,9.70609379,0.69668293,0.48682585,0.19494340
1691765278534774,0.02394202,-0.21068975,9.84974575,0.54115433,0.44421527,0.08309063
1691765278536744,-0.28730419,-0.95289230,9.71088219,0.41119206,0.41225734,0.04367584
1691765278538734,0.38786069,-0.57939678,9.51934624,0.31212249,0.30360037,-0.06498113
1691765278540777,0.21068975,-0.59855044,9.97903252,0.24288028,0.20240024,-0.07350325
1691765278542784,-0.03351882,-0.77093297,9.87847614,0.12676647,0.15339808,-0.09480853
1691765278544731,0.62728083,-0.49320555,9.67736340,0.07456851,0.10439591,-0.09480853
1691765278546765,0.31124622,-0.35913026,9.92636013,-0.02769688,0.01704423,-0.09906960
1691765278548856,0.58897364,-0.37349546,9.96945572,-0.03621899,0.01704423,-0.06178534
1691765278550942,0.26336220,-0.32561144,9.63426781,-0.10333065,0.01491370,-0.10226539
1691765278552786,0.51714754,-0.00478840,9.70609379,-0.15872440,-0.00958738,-0.08841695
1691765278554783,0.28251579,-0.48841715,9.69651699,-0.12570120,-0.02556635,-0.04793690
1691765278556710,0.32561144,-0.28251579,9.48582745,-0.18109496,0.03408846,-0.06285060
1691765278558807,0.26815060,-0.02394202,9.56244183,-0.18748654,-0.01491370,-0.06924219
1691765278560764,-0.02394202,-0.31603462,9.58638382,-0.18961707,0.00639159,-0.05432849
1691765278562882,0.36870706,0.04788403,9.53371143,-0.20240024,0.03408846,-0.08948221
1691765278564737,-0.11013328,-0.10534488,9.73003578,-0.19174761,0.01597897,-0.09480853
1691765278566810,0.14365210,-0.01915361,9.53371143,-0.20453078,0.04154531,-0.08309063
1691765278568749,-0.06703765,0.01436521,9.80665016,-0.22796659,0.05326322,-0.07882957
1691765278570761,-0.25378537,-0.22505496,9.72045898,-0.21731395,0.06391586,-0.11717909
1691765278572738,0.31124622,0.11971009,9.63426781,-0.21624868,0.07243798,-0.12037488
1691765278574758,-0.18674773,-0.02873042,9.97903252,-0.22903186,0.09906960,-0.08841695
1691765278576747,-0.07661445,-0.11013328,9.60074902,-0.26205504,0.10439591,-0.07563377
1691765278578742,0.21068975,0.19632454,9.80665016,-0.25885925,0.11398330,-0.06924219
1691765278580782,-0.19632454,0.03830723,9.89284134,-0.27377295,0.10013486,-0.05006743
1691765278582768,0.21547815,0.03351882,9.66299820,-0.32597092,0.06391586,-0.05645901
1691765278584842,0.07661445,-0.01436521,9.99818611,-0.34408042,0.04580637,-0.06498113
1691765278586766,0.05267244,0.00478840,9.75397778,-0.33342776,0.02237055,-0.06072007
1691765278588768,0.13407530,0.01915361,9.82580376,-0.34301513,-0.03408846,-0.07030746
1691765278590781,0.06224924,0.24899697,9.99339771,-0.35366780,-0.05006743,-0.07243798
1691765278592791,0.18195933,-0.01915361,9.73961258,-0.32703617,-0.07030746,-0.05965481
1691765278594824,0.13407530,0.03830723,9.93593693,-0.31638354,-0.11291803,-0.05752428
1691765278596728,0.25378537,0.46447513,9.84974575,-0.32384038,-0.11398330,-0.05219796
1691765278598734,0.03830723,-0.04788403,9.89284134,-0.30146983,-0.11291803,-0.05432849
1691765278600796,0.16280572,0.43095630,9.90241814,-0.30040458,-0.10120012,-0.06924219
1691765278602786,-0.11013328,-0.11492168,9.84016895,-0.26738137,-0.06817693,-0.07456851
1691765278604742,-0.17238252,-0.02394202,9.92157173,-0.29401299,-0.04580637,-0.09054748
1691765278606735,0.07661445,0.22984336,9.70130539,-0.30679616,-0.01704423,-0.09480853
1691765278608802,-0.23942018,-0.21547815,9.77791977,-0.32703617,0.01810949,-0.07563377
1691765278610768,-0.14365210,0.22984336,9.70609379,-0.33662355,0.02130529,-0.07030746
1691765278612766,-0.01436521,-0.05746084,9.64384460,-0.35686359,0.01704423,-0.05752428
1691765278614750,-0.36391866,-0.05267244,9.81622696,-0.37497309,0.03195793,-0.05432849
1691765278616738,0.11971009,0.14844051,9.54328823,-0.35899413,0.01491370,-0.05858954
1691765278618763,-0.06703765,-0.20590134,9.86411095,-0.37816888,-0.01278317,-0.07456851
1691765278620839,-0.27293900,0.33518824,9.75397778,-0.38029939,-0.03195793,-0.06924219
1691765278622736,0.31603462,-0.07182605,9.74918938,-0.36218992,-0.04474111,-0.07030746
1691765278624735,-0.24899697,0.05746084,9.97903252,-0.33342776,-0.07882957,-0.05539375
1691765278626753,0.20590134,0.27293900,9.66778660,-0.32597092,-0.08735169,-0.02556635
1691765278628767,0.12449849,-0.07182605,9.99339771,-0.33981934,-0.07776430,-0.02556635
1691765278630739,-0.26336220,0.45968673,9.81622696,-0.31318775,-0.07137272,-0.03515373
1691765278632764,0.43095630,0.06224924,9.72045898,-0.28868666,-0.04154531,-0.03302320
1691765278634766,-0.12928689,0.20590134,9.99818611,-0.30253509,-0.03195793,-0.02556635
1691765278636716,0.03830723,0.31124622,9.55286503,-0.30146983,0.00106526,-0.01917476
1691765278638758,0.06703765,-0.22026655,9.84495735,-0.29827404,0.02130529,-0.02663161
1691765278640758,-0.36391866,0.22984336,9.80186176,-0.30679616,0.02769688,-0.01278317
1691765278642948,0.02873042,0.01915361,9.53371143,-0.30040458,0.02769688,-0.02663161
1691765278644775,-0.19632454,0.01436521,10.04128170,-0.28549087,0.02876214,-0.03089267
1691765278646720,-0.14844051,0.15801731,9.64863300,-0.29081720,0.01597897,-0.04793690
1691765278648754,0.18674773,-0.04788403,9.82101536,-0.28336033,-0.00319579,-0.04687164
1691765278650806,-0.23463176,0.33518824,10.02691650,-0.24181503,-0.00106526,-0.06178534
1691765278652763,0.09097967,0.14844051,9.69172859,-0.24288028,-0.01810949,-0.03834952
1691765278654746,0.13886370,0.16280572,10.14183807,-0.24394555,-0.02237055,-0.04154531
1691765278656716,-0.14844051,0.26815060,9.86411095,-0.23222765,-0.01810949,-0.03302320
1691765278658784,0.11492168,-0.14844051,9.85453415,-0.21624868,-0.00958738,-0.03302320
1691765278660767,-0.11971009,0.23942018,10.14662647,-0.22796659,-0.01491370,-0.02663161
1691765278662793,0.06703765,0.12449849,9.83538055,-0.21944447,-0.01384844,-0.01171791
1691765278664733,-0.20111294,0.14844051,9.84974575,-0.20026971,-0.02663161,-0.00106526
1691765278666762,-0.01436521,-0.10534488,9.43315506,-0.20772657,-0.02343582,-0.00426106
1691765278668754,-0.01915361,-0.03830723,9.84016895,-0.20985709,-0.02663161,0.00000000
1691765278670801,-0.04309563,0.11492168,9.77791977,-0.19600865,-0.02663161,-0.00106526
1691765278672743,0.13886370,-0.11492168,9.69651699,-0.18002969,-0.00639159,0.00000000
1691765278674759,-0.05267244,0.28730419,10.08437729,-0.18535601,0.00958738,0.00213053
1691765278676740,-0.10055647,0.03830723,9.79707336,-0.16405073,0.02663161,0.01384844
1691765278678785,-0.19153613,0.00957681,10.00297451,-0.17150757,0.05006743,0.01917476
1691765278680824,-0.11492168,0.18195933,10.00297451,-0.17470337,0.07776430,0.01810949
1691765278682792,-0.05267244,-0.09097967,9.95509052,-0.16085494,0.06924219,0.01384844
1691765278684804,-0.14844051,0.29688102,10.22802925,-0.15552860,0.07137272,0.02450108
1691765278686795,-0.00478840,0.18674773,9.97424412,-0.16724652,0.06924219,-0.00745685
1691765278688788,-0.07182605,0.21068975,10.18493366,-0.15020229,0.03728426,0.00106526
1691765278690753,0.03830723,0.26336220,10.10353088,-0.13954964,0.02876214,0.02343582
1691765278692802,0.07182605,-0.12449849,10.07958889,-0.14381070,0.02024002,0.03089267
1691765278694739,-0.03351882,0.06703765,10.26633644,-0.13741912,-0.00213053,0.01917476
1691765278696715,0.18674773,0.01915361,10.13226128,-0.15339808,-0.01384844,0.01810949
1691765278698740,0.06224924,0.08140286,10.21845245,-0.16511598,-0.03834952,0.02769688
1691765278700828,0.22505496,0.47405192,10.17056847,-0.14381070,-0.05113269,0.03089267
1691765278702783,0.22026655,0.12928689,10.01255131,-0.08522116,-0.05006743,0.03941479
1691765278704738,0.17238252,0.52672440,9.89762974,-0.03089267,-0.07243798,0.04580637
1691765278706713,0.15322891,0.36870706,9.75397778,0.00319579,-0.07669904,0.04900216
1691765278708809,-0.12449849,0.14844051,9.78270817,0.02982740,-0.06391586,0.03195793
1691765278710811,-0.03351882,0.39264908,9.68215179,0.07456851,-0.05113269,0.00852212
1691765278712744,0.01915361,0.25857377,9.44752026,0.11611383,-0.03515373,-0.00532632
1691765278714738,-0.14844051,0.40222588,9.66299820,0.14168017,-0.01491370,0.00639159
1691765278716733,-0.03830723,0.25378537,9.39963627,0.15233281,0.01384844,-0.01171791
1691765278718799,-0.06703765,0.23942018,9.47625065,0.18322548,0.02982740,0.01065264
1691765278720741,-0.17238252,0.17717093,9.47625065,0.16618125,0.07350325,0.02343582
1691765278722729,-0.05267244,0.03351882,9.37090588,0.16831177,0.07350325,0.04474111
1691765278724771,-0.33997664,0.13407530,9.73482418,0.14913702,0.10013486,0.07137272
1691765278726784,-0.21068975,0.00000000,9.42357826,0.12889700,0.10120012,0.06498113
1691765278728747,0.15801731,0.20111294,9.57201862,0.08948221,0.09054748,0.08096009
1691765278730728,-0.37828386,-0.04309563,9.71088219,0.06072007,0.08415589,0.06391586
1691765278732754,0.27293900,0.00000000,9.39963627,0.06178534,0.08948221,0.05752428
1691765278734785,0.03351882,0.18195933,9.86411095,0.05219796,0.08202536,0.03834952
1691765278736758,-0.28730419,-0.17238252,9.58159542,0.03834952,0.06604639,0.03195793
1691765278738740,0.30645782,0.09097967,9.66778660,0.01491370,0.08309063,0.03515373
1691765278740774,-0.44053310,-0.14365210,9.98382092,0.01171791,0.07243798,0.01917476
1691765278742855,0.12449849,-0.06703765,9.61511421,0.02663161,0.06498113,0.03621899
1691765278744744,0.06703765,0.20111294,10.04128170,0.02876214,0.06604639,0.02450108
1691765278746725,-0.31603462,-0.04788403,9.88805294,0.04580637,0.06391586,0.03941479
1691765278748745,0.41180268,0.32082301,9.85453415,0.06178534,0.07776430,0.03621899
1691765278750834,-0.20111294,0.17717093,10.21845245,0.06498113,0.08415589,0.06072007
1691765278752745,0.02394202,0.02873042,9.75876617,0.05645901,0.08309063,0.04367584
1691765278754738,0.12928689,0.22505496,10.19929886,0.07350325,0.09693906,0.04048005
1691765278756717,-0.39743748,-0.13886370,10.10831928,0.08309063,0.09587380,0.03195793
1691765278758795,0.26336220,0.16280572,9.93114853,0.07456851,0.09054748,0.02769688
1691765278760766,-0.11492168,0.11971009,10.40041256,0.07669904,0.08841695,0.02982740
1691765278762732,-0.07182605,0.01915361,9.87847614,0.06711166,0.08841695,0.03515373
1691765278764741,0.39264908,0.35434186,10.29985619,0.05645901,0.07350325,0.03195793
1691765278766753,-0.31603462,-0.05746084,10.29506683,0.05752428,0.07563377,0.03302320
1691765278768786,0.26336220,0.11492168,9.99818611,0.06498113,0.07882957,0.02130529
1691765278770742,0.00478840,0.07182605,10.55364132,0.06391586,0.07456851,0.02237055
1691765278772738,-0.23942018,-0.17717093,10.08916569,0.06604639,0.06924219,0.03728426
1691765278774748,0.33518824,0.11492168,10.34295177,0.06072007,0.05752428,0.04900216
1691765278776782,-0.24899697,-0.02394202,10.45787334,0.04900216,0.04474111,0.03195793
1691765278778745,0.32082301,0.10055647,10.08916569,0.04367584,0.03834952,0.02663161
1691765278780751,0.03830723,0.14844051,10.52012253,0.04154531,0.02982740,0.03621899
1691765278782738,-0.15322891,-0.02873042,10.08916569,0.04580637,0.02982740,0.02769688
1691765278784884,0.22505496,0.15801731,10.14183807,0.06498113,0.02769688,0.01491370
1691765278786730,-0.18674773,0.05746084,10.33337498,0.07989483,0.02024002,0.02343582
1691765278788774,0.24420857,0.03351882,9.92157173,0.07989483,0.01917476,0.01278317
1691765278790739,0.11492168,0.18195933,10.29985619,0.06924219,0.01384844,0.01597897
1691765278792861,-0.03351882,0.10055647,10.01255131,0.06604639,0.01597897,0.02769688
1691765278794834,0.14365210,0.16280572,10.02691650,0.06391586,0.01810949,0.03728426
1691765278796759,-0.15801731,0.11971009,10.23760605,0.06711166,0.03089267,0.03089267
1691765278798758,0.08619126,-0.01915361,9.89284134,0.06924219,0.04261058,0.01917476
1691765278800862,-0.11971009,0.02873042,10.19451046,0.07243798,0.06924219,0.01491370
1691765278802797,-0.03830723,-0.05267244,9.99339771,0.07989483,0.07669904,0.00852212
1691765278804782,0.02394202,0.09576806,10.00776291,0.08522116,0.07989483,0.02024002
1691765278806751,-0.09097967,0.09097967,10.18493366,0.08415589,0.08522116,0.02237055
1691765278808783,0.14844051,0.04788403,9.93114853,0.08735169,0.08628642,0.03195793
1691765278810778,-0.12449849,0.15801731,10.20887566,0.08841695,0.07669904,0.02450108
1691765278812808,0.04309563,-0.01915361,9.97424412,0.07669904,0.06924219,0.03089267
1691765278814748,-0.07182605,0.00000000,10.07001209,0.05113269,0.05752428,0.01917476
1691765278816775,-0.10055647,-0.02394202,10.12268448,0.04367584,0.05219796,0.02450108
1691765278818779,0.32561144,-0.15322891,10.01255131,0.01704423,0.04474111,0.00958738
1691765278820740,-0.17238252,-0.03830723,10.29506683,-0.01065264,0.03089267,0.01384844
1691765278822742,0.22505496,-0.11013328,10.05085850,-0.03728426,0.02982740,0.00852212
1691765278824784,0.10055647,-0.06224924,10.26154804,-0.04367584,0.02556635,0.01491370
1691765278826760,-0.13886370,0.11971009,10.06043530,-0.04048005,0.00852212,0.01278317
1691765278828802,0.39264908,-0.07182605,9.87847614,-0.01491370,-0.00426106,0.01171791
1691765278830744,-0.33997664,0.13886370,9.99339771,0.01704423,-0.00319579,0.00426106
1691765278832776,0.18674773,0.21547815,9.53371143,0.05752428,-0.01065264,0.01384844
1691765278834845,0.10534488,0.31603462,9.73003578,0.10972223,-0.00958738,0.01704423
1691765278836722,-0.31124622,0.43574470,9.50498104,0.13102752,0.00745685,0.00639159
1691765278838797,0.34476504,0.23942018,9.26556015,0.17150757,0.02876214,-0.00958738
1691765278840766,-0.19632454,0.34955344,9.68694019,0.17470337,0.07243798,-0.00852212
1691765278842837,-0.13886370,0.09576806,9.17936897,0.18642128,0.09374327,-0.00639159
1691765278844830,0.02394202,0.19153613,9.48103905,0.19707392,0.13315806,-0.01278317
1691765278846727,-0.44532153,-0.04788403,9.58638382,0.20453078,0.16405073,0.01278317
1691765278848788,-0.04788403,0.03351882,9.16021538,0.19068234,0.18642128,0.01704423
1691765278850917,-0.15322891,0.20111294,9.71088219,0.18855180,0.19387813,0.02769688
1691765278852758,-0.37828386,-0.18195933,9.27992535,0.18216021,0.17789917,0.01065264
1691765278854744,0.29688102,0.19632454,9.47146225,0.14913702,0.16511598,0.02024002
1691765278856739,-0.21068975,-0.16759412,9.75876617,0.12144014,0.12996227,0.00532632
1691765278858820,0.18674773,-0.09097967,9.29907894,0.11504856,0.08948221,0.02556635
1691765278860800,0.25857377,0.21068975,9.90720654,0.11504856,0.06711166,0.00426106
1691765278862777,-0.04788403,-0.04788403,9.66299820,0.10120012,0.03834952,0.01704423
1691765278864864,0.44532153,0.09097967,9.65342140,0.05965481,0.00745685,0.00958738
1691765278866753,-0.19632454,-0.09097967,10.02212811,0.04048005,-0.02343582,0.01278317
1691765278868966,0.30645782,0.00478840,9.62469101,0.05219796,-0.01704423,0.01384844
1691765278870753,0.25857377,0.04309563,10.01255131,0.06178534,-0.03728426,0.02556635
1691765278872746,0.06703765,0.03830723,9.90720654,0.03834952,-0.04367584,0.02450108
1691765278874826,0.24899697,-0.02873042,9.82580376,0.04580637,-0.03834952,0.01171791
1691765278876763,-0.05746084,0.15801731,10.11310768,0.04900216,-0.04580637,0.00426106
1691765278878768,0.16759412,0.02873042,9.80186176,0.05006743,-0.04474111,0.00852212
1691765278880745,-0.03351882,-0.12449849,10.09874249,0.05645901,-0.03941479,0.00639159
1691765278882781,0.08140286,0.01436521,9.99339771,0.04580637,-0.03515373,-0.01384844
1691765278884839,-0.01436521,-0.16759412,9.99339771,0.04580637,-0.03302320,-0.01597897
1691765278886781,-0.10534488,0.14844051,10.16578007,0.01917476,-0.01597897,-0.01491370
1691765278888771,0.12928689,0.02394202,9.98860931,0.02024002,-0.01810949,-0.00745685
1691765278890733,-0.13886370,-0.01436521,10.19451046,0.02130529,-0.00532632,0.00106526
1691765278892809,0.20590134,0.15801731,10.02691650,0.02237055,0.01810949,0.00106526
1691765278894770,-0.03351882,-0.01915361,10.14183807,0.01917476,0.02130529,0.01917476
1691765278896730,-0.15322891,0.29688102,10.11789608,0.02450108,0.03302320,0.02024002
1691765278898757,0.12928689,-0.03830723,10.03170490,0.02450108,0.05219796,0.02130529
1691765278900826,-0.22984336,-0.01915361,10.26154804,0.01597897,0.05006743,0.01278317
1691765278902764,0.11492168,0.04309563,9.99818611,0.01065264,0.04367584,0.01171791
1691765278904906,-0.01915361,-0.11013328,10.23281765,0.00639159,0.03728426,0.00745685
1691765278906729,-0.21068975,0.30645782,10.15620327,0.00426106,0.02237055,-0.00213053
1691765278908795,0.32082301,-0.01915361,10.09874249,0.00319579,0.02556635,-0.02024002
1691765278910833,-0.15801731,0.14365210,10.29985619,0.01491370,0.03089267,-0.02769688
1691765278912737,0.06703765,0.21068975,9.91678333,0.01704423,0.01704423,-0.02663161
1691765278914754,0.03830723,-0.02873042,10.20887566,0.01491370,0.03408846,-0.02024002
1691765278916735,-0.34476504,0.26815060,10.09395409,0.00426106,0.05006743,-0.01810949
1691765278918788,0.22026655,-0.16280572,9.95509052,0.00319579,0.05752428,-0.00745685
1691765278920762,-0.14365210,0.13886370,10.32858658,0.01491370,0.05965481,-0.00106526
1691765278922739,-0.05746084,0.19153613,9.88326454,0.01491370,0.05539375,0.00213053
1691765278924783,0.22026655,-0.09097967,10.12747288,0.01278317,0.05432849,0.00213053
1691765278926755,-0.21547815,0.38786069,10.17535686,0.00532632,0.05006743,0.00319579
1691765278928783,0.18195933,-0.21547815,9.89762974,-0.00532632,0.03941479,-0.00106526
1691765278930741,-0.08140286,0.13886370,10.33337498,-0.00745685,0.02450108,0.00426106
1691765278932770,-0.11013328,0.15322891,9.99339771,-0.00745685,0.01917476,-0.00319579
1691765278934802,0.30166942,-0.25378537,10.16099167,0.00213053,-0.00639159,-0.01278317
1691765278936748,-0.03830723,0.47884035,10.29506683,-0.00426106,-0.01810949,-0.03089267
1691765278938742,0.23463176,-0.22026655,9.97903252,-0.00639159,-0.02876214,-0.02130529
1691765278940816,0.14844051,0.22984336,10.36210537,-0.00319579,-0.04474111,-0.02769688
1691765278942820,0.15801731,-0.30645782,10.01255131,-0.02024002,-0.04687164,-0.01917476
1691765278944788,0.12449849,-0.33039984,10.11789608,-0.01704423,-0.04154531,-0.01704423
1691765278946726,0.01915361,0.52193600,10.31422138,-0.02343582,-0.04367584,-0.01278317
1691765278948752,-0.03830723,-0.30166942,10.00776291,-0.01597897,-0.03515373,-0.01278317
1691765278950844,0.09576806,0.27772740,10.29027843,-0.03089267,-0.02024002,-0.01171791
1691765278952751,0.09097967,0.27293900,10.12268448,-0.01917476,-0.01597897,-0.00958738
1691765278954766,-0.04788403,-0.26336220,10.08437729,-0.01597897,-0.01171791,-0.02130529
1691765278956722,0.21547815,0.52193600,10.25197124,-0.01917476,0.00000000,-0.02024002
1691765278958849,-0.18674773,-0.31124622,10.08916569,-0.02982740,-0.01065264,-0.02343582
1691765278960807,0.01915361,0.25378537,10.22324085,-0.03089267,-0.01491370,-0.01810949
1691765278962740,0.14365210,0.02394202,10.21366405,-0.04154531,-0.02343582,-0.02556635
1691765278964754,-0.22505496,-0.32082301,10.17535686,-0.04900216,-0.03728426,-0.01278317
1691765278966751,0.30166942,0.33997664,10.26154804,-0.06711166,-0.02982740,-0.01597897
1691765278968816,-0.07182605,-0.45968673,10.29027843,-0.08841695,-0.03621899,-0.01278317
1691765278970751,0.13407530,0.33518824,10.27112484,-0.10865697,-0.05219796,-0.00852212
1691765278972745,0.24420857,0.04309563,10.31422138,-0.11291803,-0.06285060,-0.00106526
1691765278974766,-0.31124622,0.07661445,10.08437729,-0.10546118,-0.06285060,-0.00426106
1691765278976783,0.33039984,0.50278234,9.93114853,-0.06604639,-0.08202536,0.00213053
1691765278978777,-0.10055647,-0.31603462,10.07958889,-0.03408846,-0.09800433,0.01810949
1691765278980758,0.00957681,0.50757074,9.88326454,-0.02343582,-0.10546118,0.00000000
1691765278982782,0.27772740,-0.04309563,9.96466732,-0.00532632,-0.09054748,0.00106526
1691765278984782,-0.17238252,0.18195933,9.96945572,0.00852212,-0.09693906,-0.01065264
1691765278986733,0.17717093,0.35434186,9.83538055,-0.01065264,-0.08309063,-0.01384844
1691765278988746,-0.15322891,-0.43095630,10.13226128,-0.03089267,-0.07350325,-0.02876214
1691765278990774,-0.08140286,0.28730419,9.93593693,-0.05752428,-0.06285060,-0.00106526
1691765278992815,0.01915361,-0.30166942,9.91199493,-0.06285060,-0.05965481,-0.01384844
1691765278994862,-0.15322891,0.14365210,10.00776291,-0.07137272,-0.06178534,-0.01384844
1691765278996732,0.16759412,0.40222588,9.63905621,-0.06285060,-0.06604639,-0.02237055
1691765278998780,0.09576806,-0.26815060,9.82101536,-0.03515373,-0.08202536,0.00000000
1691765279000829,0.01436521,0.79008657,9.69172859,-0.00426106,-0.07563377,-0.02130529
1691765279002808,0.12449849,0.09576806,9.51934624,0.03941479,-0.08628642,-0.00213053
1691765279004750,-0.04788403,0.26815060,9.71088219,0.08202536,-0.08841695,-0.01171791
1691765279006744,-0.07661445,0.53630120,9.37569427,0.09267800,-0.07882957,-0.00958738
1691765279008795,0.01436521,-0.33039984,9.57201862,0.10972223,-0.06391586,-0.02024002
1691765279010774,-0.03830723,0.50278234,9.63905621,0.11398330,-0.06178534,-0.01278317
1691765279012790,-0.07661445,-0.16280572,9.41400146,0.10013486,-0.05858954,0.00213053
1691765279014760,-0.00478840,-0.00478840,9.65820980,0.07350325,-0.03728426,-0.00745685
1691765279016750,0.12449849,0.44053310,9.56723022,0.07669904,-0.04580637,0.00319579
1691765279018776,-0.07661445,-0.39264908,9.64384460,0.02876214,-0.04154531,0.01917476
1691765279020908,0.13886370,0.41180268,9.80665016,-0.01917476,-0.05645901,0.01491370
1691765279022745,0.01436521,-0.15801731,9.84495735,-0.04154531,-0.05113269,0.01597897
1691765279024771,-0.14844051,-0.16759412,9.89762974,-0.07669904,-0.05858954,0.01704423
1691765279026775,0.27772740,0.21547815,9.99339771,-0.12144014,-0.07030746,0.00532632
1691765279028798,-0.27293900,-0.55066639,10.08916569,-0.14700650,-0.08202536,0.00852212
1691765279030746,0.18674773,0.18674773,10.02212811,-0.15765914,-0.08309063,0.00319579
1691765279032814,0.13407530,-0.02394202,10.15141487,-0.17576863,-0.09267800,-0.00106526
1691765279034861,-0.24420857,0.03830723,9.94072533,-0.13741912,-0.11185277,0.00532632
1691765279036785,0.36870706,0.49799395,9.87368774,-0.10439591,-0.10120012,0.01810949
1691765279038844,-0.22505496,0.02873042,9.84495735,-0.07030746,-0.10652644,0.01171791
1691765279040784,0.11492168,0.41180268,9.55765343,0.00000000,-0.10333065,0.01704423
1691765279042834,-0.01436521,0.14365210,9.73482418,0.01278317,-0.09906960,0.01810949
1691765279044781,-0.38307226,0.15801731,9.54807663,0.02769688,-0.07669904,-0.01597897
1691765279046739,0.25378537,0.45010993,9.40442467,0.05113269,-0.06498113,-0.01065264
1691765279048805,-0.28251579,0.05267244,9.72524738,0.07669904,-0.04048005,-0.02663161
1691765279050825,-0.02873042,0.45968673,9.38527107,0.09054748,-0.02663161,0.00106526
1691765279052865,0.21547815,0.20590134,9.61511421,0.09693906,-0.01597897,-0.00958738
1691765279054760,-0.33518824,0.12928689,9.70609379,0.08628642,-0.00639159,0.01384844
1691765279056741,0.11013328,0.32561144,9.35654068,0.08202536,-0.00745685,0.01384844
1691765279058795,-0.09576806,-0.14365210,9.74440098,0.07137272,0.00852212,0.02343582
1691765279060832,-0.19153613,0.21068975,9.51455784,0.05432849,-0.00426106,0.02982740
1691765279062750,0.16759412,-0.05746084,9.57680702,0.03089267,-0.00319579,0.02237055
1691765279064759,-0.25378537,-0.06224924,9.77791977,0.02237055,0.00319579,0.02237055
1691765279066771,0.01436521,0.24899697,9.50498104,0.01704423,0.00319579,-0.00213053
1691765279068772,0.01436521,-0.29209262,9.84974575,0.00532632,-0.00426106,0.00852212
1691765279070806,-0.10055647,0.27293900,9.74440098,0.00000000,-0.00106526,-0.01491370
1691765279072748,0.20111294,-0.14365210,9.77791977,-0.00319579,0.00213053,-0.01384844
1691765279074789,-0.02873042,-0.14844051,10.01255131,-0.00213053,-0.01278317,-0.01171791
1691765279076865,0.10534488,0.55066639,9.81143856,-0.02450108,-0.01704423,-0.00213053
1691765279078805,-0.00957681,-0.33039984,10.05085850,-0.03408846,-0.02982740,0.00106526
1691765279080751,0.07182605,0.36870706,10.02691650,-0.03089267,-0.03195793,0.00426106
1691765279082800,0.09576806,-0.00957681,10.04128170,-0.04048005,-0.04687164,0.01597897
1691765279084871,-0.16759412,-0.31603462,10.19929886,-0.06817693,-0.06285060,0.01171791
1691765279086747,0.21547815,0.52672440,10.10353088,-0.06817693,-0.04793690,-0.00213053
1691765279088749,-0.06703765,-0.41180268,10.20408726,-0.04261058,-0.04687164,0.00639159
1691765279090775,0.23463176,0.39743748,10.17535686,-0.05752428,-0.05219796,0.00426106
1691765279092914,0.07661445,0.12449849,10.22802925,-0.07243798,-0.04154531,0.00852212
1691765279094827,-0.25378537,-0.39743748,10.26633644,-0.07669904,-0.03195793,0.00000000
1691765279096753,0.40701428,0.46447513,10.28549004,-0.09267800,-0.03941479,0.00319579
1691765279098775,-0.33518824,-0.64643449,10.36689377,-0.13209279,-0.05645901,0.01065264
1691765279100836,0.10055647,0.01915361,10.29027843,-0.16618125,-0.05858954,0.01810949
1691765279102788,0.08140286,-0.15322891,10.51054573,-0.19707392,-0.06711166,0.00639159
1691765279104782,-0.16759412,-0.30645782,10.38125896,-0.21092236,-0.07989483,0.01278317
1691765279106749,0.36391866,0.44532153,10.45787334,-0.23329291,-0.07563377,0.01597897
1691765279108900,-0.40701428,-0.27772740,10.34774017,-0.21837921,-0.07776430,0.01491370
1691765279110783,0.20590134,0.42137951,10.14662647,-0.15978967,-0.05858954,0.01384844
1691765279112809,-0.03830723,0.20111294,10.33816338,-0.13422331,-0.04580637,0.02769688
1691765279114779,-0.31124622,-0.01915361,10.09874249,-0.10013486,-0.02343582,0.01491370
1691765279116741,0.30166942,0.49320555,10.04128170,-0.05432849,-0.01491370,0.02556635
1691765279118800,-0.34955344,-0.09097967,10.18493366,-0.02130529,0.01171791,0.00106526
1691765279120779,0.08140286,0.43574470,9.87847614,0.00106526,0.01917476,0.00852212
1691765279122765,-0.04309563,0.09097967,10.18014526,0.01065264,0.02024002,0.00745685
1691765279124786,-0.34476504,0.06703765,9.94072533,0.00213053,0.02237055,0.03089267
1691765279126735,0.26815060,0.33997664,9.89762974,0.00213053,0.01384844,0.00958738
1691765279128800,-0.31603462,-0.28730419,10.16578007,0.00745685,0.00852212,0.02024002
1691765279130741,0.10534488,0.36870706,9.79228497,-0.01491370,-0.00213053,0.00106526
1691765279132774,0.04788403,0.03351882,10.09874249,-0.02450108,-0.00532632,-0.00958738
1691765279134780,-0.09097967,0.16759412,9.96945572,-0.02343582,-0.01278317,-0.01278317
1691765279136763,0.26815060,0.33518824,9.91199493,-0.02343582,-0.00532632,-0.02024002
1691765279138756,-0.13886370,-0.10534488,10.07001209,-0.01491370,-0.01278317,-0.00958738
1691765279140779,0.20111294,0.42616791,9.78749657,-0.01065264,-0.01171791,-0.01917476
1691765279142826,-0.12449849,-0.10055647,10.06043530,-0.00852212,-0.00852212,-0.01384844
1691765279144761,0.02394202,0.23463176,9.91199493,-0.00958738,-0.00639159,-0.01597897
1691765279146755,0.15801731,0.22984336,9.87368774,-0.00213053,-0.00852212,-0.00745685
1691765279148767,-0.21068975,-0.18195933,10.00297451,-0.01917476,0.00319579,-0.00319579
1691765279150808,0.19153613,0.45968673,9.81143856,-0.01810949,0.01171791,-0.00745685
1691765279152762,-0.17238252,-0.21068975,10.03170490,-0.01491370,0.01065264,-0.00852212
1691765279154779,0.08619126,0.26815060,9.83059216,-0.01278317,0.00532632,-0.01384844
1691765279156727,0.17238252,0.30645782,9.94551373,-0.02024002,-0.00106526,-0.01384844
1691765279158911,-0.19632454,-0.21547815,10.06522369,-0.02343582,-0.00958738,-0.00639159
1691765279160787,0.34955344,0.55545479,9.86411095,-0.01704423,-0.02343582,-0.01171791
1691765279162753,-0.21547815,-0.23942018,10.06043530,-0.02663161,-0.02450108,-0.01384844
1691765279164755,0.13886370,0.17238252,9.87847614,-0.03195793,-0.04793690,-0.01278317
1691765279166757,0.21547815,0.15322891,10.17056847,-0.04793690,-0.04687164,-0.00852212
1691765279168778,-0.23463176,-0.45010993,10.00297451,-0.06072007,-0.05858954,-0.02663161
1691765279170816,0.55066639,0.47405192,10.01733971,-0.08309063,-0.06285060,-0.02024002
1691765279172780,-0.20111294,-0.20111294,10.17535686,-0.08096009,-0.07137272,-0.00958738
1691765279174775,0.09576806,0.33039984,9.76834297,-0.06285060,-0.06817693,-0.00958738
1691765279176780,0.23942018,0.51235914,9.92636013,-0.03621899,-0.07243798,-0.00106526
1691765279178807,-0.33518824,-0.11492168,9.74440098,-0.00426106,-0.07350325,0.00532632
1691765279180859,0.29688102,0.57939678,9.65342140,0.03621899,-0.07030746,0.01384844
1691765279182783,-0.17238252,-0.02394202,9.87368774,0.06604639,-0.05219796,0.00958738
1691765279184906,-0.02394202,0.24420857,9.51934624,0.10120012,-0.03515373,-0.00319579
1691765279186740,0.22984336,0.32082301,9.79707336,0.11611383,-0.03302320,-0.01171791
1691765279188743,-0.22984336,-0.05267244,9.95987892,0.10865697,-0.02024002,-0.01597897
1691765279190792,0.19632454,0.41659111,9.64384460,0.08096009,0.00426106,-0.01171791
1691765279192836,-0.22026655,-0.11013328,10.06043530,0.07776430,0.03195793,-0.02876214
1691765279194783,-0.22984336,0.03830723,9.72045898,0.06072007,0.04367584,-0.02237055
1691765279196690,0.20590134,0.38307226,9.76355457,0.02450108,0.08202536,-0.03408846
1691765279198778,-0.40701428,-0.38307226,9.97424412,0.01917476,0.09693906,-0.01597897
1691765279200838,-0.13407530,0.17717093,9.71567059,0.01810949,0.10652644,-0.01917476
1691765279202821,0.10055647,0.31603462,9.80665016,0.04261058,0.11930962,-0.01917476
1691765279204770,-0.33997664,-0.13407530,9.89762974,0.06711166,0.13315806,-0.01597897
1691765279206759,0.02394202,0.45489833,9.62469101,0.11504856,0.11611383,-0.01171791
1691765279208799,-0.22984336,-0.10534488,9.91199493,0.12357067,0.13741912,-0.00213053
1691765279210758,-0.01915361,0.23942018,9.73003578,0.13102752,0.14700650,0.01810949
1691765279212887,0.19153613,0.24420857,9.80186176,0.14807175,0.12250541,0.03515373
1691765279214776,-0.11013328,-0.09097967,9.93593693,0.14274544,0.11291803,0.03728426
1691765279216857,0.15801731,0.58418524,9.72045898,0.12783173,0.08948221,0.04474111
1691765279218798,-0.03351882,-0.16759412,9.95030212,0.10972223,0.03408846,0.04580637
1691765279220860,0.11971009,0.10534488,9.75397778,0.10120012,0.00106526,0.04367584
1691765279222753,0.12449849,0.02394202,9.86889935,0.07030746,-0.01065264,0.01917476
1691765279224807,-0.00957681,-0.31124622,9.81622696,0.05113269,-0.05006743,0.02130529
1691765279226796,0.44053310,0.31124622,9.77791977,0.04474111,-0.06604639,0.01704423
1691765279228780,-0.03830723,-0.24420857,9.94072533,0.04580637,-0.07882957,0.02343582
1691765279230750,0.38786069,0.30166942,9.70609379,0.04261058,-0.10759171,0.00639159
1691765279232786,0.16280572,0.24420857,9.95030212,0.02876214,-0.10013486,0.02130529
1691765279234864,-0.24899697,-0.23942018,9.81143856,0.02024002,-0.10120012,0.00639159
1691765279236766,0.38786069,0.30645782,9.78749657,0.00958738,-0.09054748,-0.01171791
1691765279238836,-0.22505496,-0.35913026,10.00776291,0.01171791,-0.08415589,0.00106526
1691765279240790,0.15801731,-0.05267244,9.71088219,0.01065264,-0.07350325,-0.00958738
1691765279242933,0.14844051,0.12928689,9.95987892,-0.00319579,-0.06604639,-0.01384844
1691765279244773,-0.32082301,-0.09097967,9.86411095,-0.01704423,-0.04474111,-0.00745685
1691765279246755,0.32082301,0.43574470,9.75876617,-0.01278317,-0.03941479,-0.01597897
1691765279248808,-0.18195933,-0.09576806,10.07958889,0.00639159,-0.02769688,-0.01917476
1691765279250823,-0.04788403,0.11013328,9.69651699,0.01704423,-0.01917476,-0.00852212
1691765279252879,0.14844051,0.22026655,9.99818611,0.02343582,0.00319579,0.00319579
1691765279254760,-0.50757074,-0.16759412,9.87847614,0.03621899,0.02876214,0.00958738
1691765279256825,0.20590134,0.40222588,9.61511421,0.06711166,0.04687164,0.01704423
1691765279258840,-0.17238252,0.01915361,10.12268448,0.07563377,0.06817693,0.00106526
1691765279260899,-0.27772740,0.10055647,9.64384460,0.07137272,0.08841695,0.00852212
1691765279262822,0.38307226,0.24420857,9.82101536,0.05645901,0.11717909,0.01065264
1691765279264765,-0.43574470,-0.21068975,9.92636013,0.04900216,0.11398330,0.02343582
1691765279266799,0.17717093,0.35434186,9.52413464,0.03834952,0.12250541,0.01597897
1691765279268819,-0.00478840,-0.03351882,10.02691650,0.03302320,0.12463594,0.00213053
1691765279270861,-0.27293900,0.10534488,9.63426781,0.02982740,0.11291803,-0.00426106
1691765279272754,0.29209262,0.27293900,9.71567059,0.02024002,0.09693906,-0.00639159
1691765279274835,-0.33997664,-0.22505496,9.92636013,0.02024002,0.08522116,-0.00213053
1691765279276775,0.29688102,0.29688102,9.78270817,0.02024002,0.07456851,-0.01810949
1691765279278816,-0.16759412,-0.11492168,9.99818611,0.01065264,0.05858954,-0.00426106
1691765279280768,0.24899697,0.34955344,9.67736340,-0.00319579,0.04900216,-0.01171791
1691765279282790,-0.02873042,-0.17238252,10.05564690,0.00532632,0.03195793,-0.00852212
1691765279284891,0.02394202,-0.00957681,9.89284134,-0.00532632,0.02876214,-0.01278317
1691765279286744,0.11013328,0.15801731,9.95030212,-0.01384844,0.02556635,-0.00852212
1691765279288771,-0.17238252,-0.24420857,10.08916569,-0.01810949,0.02237055,-0.00532632
1691765279290772,0.27293900,0.38307226,9.84974575,-0.03195793,0.02876214,-0.02024002
1691765279292900,-0.04309563,-0.00478840,10.08916569,-0.03089267,0.03195793,-0.00106526
1691765279294780,0.12449849,0.13407530,9.86889935,-0.02556635,0.02663161,-0.00958738
1691765279296858,-0.02873042,0.34955344,10.01255131,-0.00106526,0.02982740,-0.00745685
1691765279298756,-0.26336220,-0.13407530,9.99339771,-0.00213053,0.04154531,-0.01065264
1691765279300939,0.28251579,0.28251579,9.88805294,-0.00639159,0.03195793,0.00639159
1691765279302782,-0.20590134,-0.21068975,10.11789608,-0.01278317,0.03089267,0.01171791
1691765279304920,0.21068975,-0.05267244,9.84495735,-0.02024002,0.02556635,0.01171791
1691765279306756,0.11013328,0.41180268,10.11789608,-0.03089267,0.01917476,0.00213053
1691765279308780,-0.24420857,-0.08140286,9.94551373,-0.02876214,0.01065264,0.00852212
1691765279310820,0.45489833,0.30645782,9.94551373,-0.02982740,0.00319579,-0.00106526
1691765279312755,-0.33039984,-0.12449849,10.18493366,-0.04367584,-0.00639159,-0.00319579
1691765279314753,0.11971009,-0.18195933,9.88326454,-0.05858954,-0.00852212,-0.00213053
1691765279316738,0.11492168,0.05267244,10.32858658,-0.08522116,-0.01171791,-0.00213053
1691765279318925,-0.28730419,-0.21547815,10.11310768,-0.11504856,-0.01810949,0.00000000
1691765279320821,0.49320555,0.13886370,10.16578007,-0.12676647,0.00639159,0.00106526
1691765279322747,-0.25378537,0.04309563,10.46745014,-0.12037488,0.00639159,0.00745685
1691765279324781,0.14844051,0.02394202,9.99818611,-0.11291803,0.01917476,0.00213053
1691765279326741,0.14844051,0.16280572,10.35731697,-0.10652644,0.02343582,0.00426106
1691765279328765,-0.38307226,-0.03351882,10.12747288,-0.08948221,0.03302320,0.00213053
1691765279330748,0.30166942,0.12928689,9.99818611,-0.06498113,0.03089267,0.00319579
1691765279332779,-0.24420857,0.18674773,10.37168217,-0.05326322,0.04580637,-0.00532632
1691765279334812,-0.08140286,0.09097967,9.88805294,-0.02876214,0.05965481,-0.00532632
1691765279336744,0.21547815,0.24420857,10.26154804,-0.01597897,0.06391586,-0.01384844
1691765279338757,-0.34955344,0.14844051,10.14183807,-0.01704423,0.07776430,-0.01597897
1691765279340881,0.28730419,0.15322891,9.87847614,0.00213053,0.07563377,-0.00745685
1691765279342841,-0.18195933,0.07182605,10.24239445,0.01810949,0.07776430,0.00213053
1691765279344786,-0.11971009,0.17238252,9.65342140,0.00639159,0.06498113,-0.00213053
1691765279346792,0.13407530,0.22505496,9.97903252,0.01278317,0.05219796,-0.00745685
1691765279348758,-0.25857377,0.08619126,9.93114853,0.02556635,0.03728426,0.00745685
1691765279350854,0.37349546,0.25857377,9.61990261,0.01917476,0.03089267,0.00106526
1691765279352755,-0.06224924,0.08140286,10.05085850,0.02876214,0.00852212,0.00319579
1691765279354830,0.12928689,0.22505496,9.62469101,0.03089267,0.00000000,0.00639159
1691765279356732,0.12449849,0.14365210,9.87847614,0.02663161,-0.00319579,0.01917476
1691765279358854,-0.05267244,0.00957681,10.02691650,0.03302320,-0.01278317,0.01384844
1691765279360805,0.25857377,0.17238252,9.61511421,0.04048005,-0.02663161,0.01065264
1691765279362751,-0.11492168,-0.08619126,10.02691650,0.03195793,-0.03089267,0.01597897
1691765279364760,0.18195933,0.09097967,9.71567059,0.02769688,-0.04048005,0.00745685
1691765279366756,0.02394202,0.07182605,9.93114853,0.00213053,-0.03834952,0.00000000
1691765279368803,0.04309563,-0.03830723,9.89284134,-0.02130529,-0.03089267,0.00106526
1691765279370753,0.17238252,0.16280572,9.78270817,-0.01917476,-0.03408846,-0.00213053
1691765279372810,-0.17717093,-0.08619126,10.02691650,-0.02663161,-0.02556635,-0.00319579
1691765279374775,0.24420857,0.00478840,9.79228497,-0.04474111,-0.04474111,-0.01171791
1691765279376869,-0.15801731,-0.06703765,10.14183807,-0.09054748,-0.04261058,-0.00213053
1691765279378765,-0.06703765,-0.19632454,10.01733971,-0.11078750,-0.03728426,-0.01491370
1691765279380756,0.36391866,-0.07661445,10.01733971,-0.12676647,-0.02876214,-0.01065264
1691765279382772,-0.10534488,-0.10055647,10.36689377,-0.13635385,-0.01704423,-0.00213053
1691765279384829,0.31603462,0.03830723,10.11310768,-0.15765914,0.00319579,0.00639159
1691765279386746,-0.11013328,0.21547815,10.32858658,-0.11078750,0.00213053,0.00639159
1691765279388758,-0.37349546,0.10534488,10.14662647,-0.07030746,-0.01065264,0.00426106
1691765279390824,0.16280572,0.44532153,9.86889935,0.01491370,-0.03089267,-0.00213053
1691765279392786,-0.10534488,0.49320555,10.03170490,0.06604639,-0.03089267,-0.00106526
1691765279394773,0.20111294,0.40701428,9.38048267,0.18322548,-0.04154531,0.01065264
1691765279396732,0.26815060,0.46926352,9.56723022,0.22477080,-0.04793690,0.00639159
1691765279398860,-0.31603462,0.40222588,9.55765343,0.25246766,-0.02982740,-0.00745685
1691765279400821,0.33518824,0.38786069,9.35654068,0.28549087,0.00106526,-0.01171791
1691765279402735,0.02873042,0.45489833,9.61032581,0.27270770,0.01917476,-0.01278317
1691765279404814,-0.03830723,-0.11492168,9.06923580,0.21944447,0.05219796,0.01704423
1691765279406732,0.31124622,0.35913026,9.27992535,0.19494340,0.08309063,0.02024002
1691765279408848,-0.45010993,-0.33039984,9.17936897,0.17363811,0.07776430,0.02237055
1691765279410845,-0.07661445,-0.13886370,8.97825623,0.13102752,0.08735169,0.01597897
1691765279412753,0.11013328,0.35913026,9.53849983,0.11611383,0.07669904,0.01917476
1691765279414786,-0.02394202,-0.18195933,8.79150867,0.12144014,0.02237055,0.00958738
1691765279416770,0.37828386,0.25378537,8.91121864,0.11717909,-0.02769688,-0.00852212
1691765279418805,-0.14844051,0.13407530,9.38048267,0.12996227,-0.05432849,0.00000000
1691765279420906,0.05267244,0.03830723,8.75798988,0.17044231,-0.05858954,0.00213053
1691765279422792,0.08140286,0.24899697,9.28471375,0.16937704,-0.09906960,0.01917476
1691765279424784,-0.18195933,-0.01915361,9.07402420,0.17150757,-0.10120012,0.01704423
1691765279426789,0.28251579,0.19632454,8.77714348,0.19600865,-0.09693906,0.00852212
1691765279428832,-0.12928689,0.04309563,9.26556015,0.20346551,-0.09267800,0.00000000
1691765279430760,0.14365210,0.16280572,8.92558384,0.19600865,-0.09480853,0.00639159
1691765279432755,0.17238252,0.24420857,9.18415737,0.19813919,-0.07989483,0.01278317
1691765279434943,-0.09576806,-0.00957681,9.47146225,0.17363811,-0.08309063,0.00106526
1691765279436737,0.16759412,0.12449849,9.21767616,0.13635385,-0.05858954,0.00852212
1691765279438812,-0.11013328,-0.18674773,9.61990261,0.10972223,-0.07243798,0.01917476
1691765279440757,0.01915361,-0.09097967,9.41400146,0.06924219,-0.05432849,0.00852212
1691765279442851,-0.06703765,-0.05746084,9.56723022,0.03941479,-0.03941479,0.00958738
1691765279444804,-0.23942018,-0.14844051,9.69172859,-0.00213053,-0.03089267,0.00639159
1691765279446794,0.11013328,-0.04788403,9.52413464,-0.02237055,-0.02024002,0.01491370
1691765279448764,-0.32082301,-0.39743748,9.98382092,-0.05965481,0.00426106,0.00106526
1691765279450825,-0.03351882,-0.21547815,9.69651699,-0.06604639,0.04367584,0.02343582
1691765279452913,0.03351882,-0.04309563,9.96945572,-0.05006743,0.05645901,0.04474111
1691765279454804,-0.34476504,-0.10534488,10.08437729,-0.06711166,0.09587380,0.03195793
1691765279456737,0.08140286,0.10055647,9.79707336,-0.08096009,0.12996227,0.01704423
1691765279458827,-0.10534488,-0.02394202,10.19451046,-0.08628642,0.12037488,0.02769688
1691765279460815,-0.08619126,-0.06703765,9.87368774,-0.09374327,0.10972223,0.02237055
1691765279462789,0.11492168,0.01436521,9.94551373,-0.10120012,0.07350325,0.00852212
1691765279464864,-0.24899697,0.08140286,10.00776291,-0.08522116,0.02237055,0.01278317
1691765279466768,0.23942018,0.06703765,9.68694019,-0.08948221,-0.03621899,-0.00852212
1691765279468816,0.10534488,0.03830723,10.07480049,-0.08841695,-0.05645901,-0.00958738
1691765279470764,0.00478840,0.14844051,9.76834297,-0.05858954,-0.08628642,0.00639159
1691765279472757,0.51235914,0.08619126,9.89284134,-0.04474111,-0.10226539,0.00106526
1691765279474806,-0.12449849,0.37349546,9.97424412,-0.04154531,-0.09267800,-0.01491370
1691765279476753,0.25378537,0.03351882,9.64384460,-0.02024002,-0.08096009,0.00319579
1691765279478822,0.12928689,0.01436521,9.99818611,-0.02024002,-0.06072007,-0.03515373
1691765279480776,-0.15322891,0.14365210,9.74440098,-0.02982740,-0.05965481,-0.01810949
1691765279482819,0.12928689,-0.23463176,9.78270817,-0.04793690,-0.03515373,-0.01810949
1691765279484831,-0.20111294,0.32561144,10.02212811,-0.06817693,-0.02663161,-0.00319579
1691765279486744,0.09576806,-0.03351882,9.69172859,-0.08096009,-0.01704423,-0.01810949
1691765279488769,-0.29688102,0.31603462,10.11310768,-0.09480853,-0.01810949,0.00426106
1691765279490761,-0.08140286,0.31124622,9.97424412,-0.10120012,-0.01171791,-0.00852212
1691765279492837,0.03830723,-0.24420857,9.89762974,-0.12783173,-0.01278317,0.00639159
1691765279494774,-0.13407530,0.41180268,10.18493366,-0.12357067,-0.00106526,0.00000000
1691765279496849,0.05267244,-0.03351882,9.99339771,-0.12463594,0.02130529,0.01171791
1691765279498765,-0.13407530,-0.11013328,10.27112484,-0.14274544,0.03941479,0.00426106
1691765279500849,-0.02873042,0.24420857,10.26154804,-0.14381070,0.05006743,0.01491370
1691765279502812,-0.21547815,-0.46447513,10.39083576,-0.15659387,0.06285060,0.00426106
1691765279504856,-0.12449849,0.29688102,10.64462090,-0.18109496,0.08628642,0.01278317
1691765279506754,0.02394202,-0.17717093,10.56800652,-0.19494340,0.08841695,0.02024002
1691765279508819,-0.22026655,-0.11492168,10.74517727,-0.20879182,0.09587380,0.01171791
1691765279510820,0.11971009,0.18674773,10.78827286,-0.22477080,0.10013486,-0.00213053
1691765279512774,-0.22984336,-0.34955344,10.78827286,-0.21624868,0.07669904,0.00532632
1691765279514759,0.03830723,0.55545479,10.61589050,-0.19707392,0.04793690,0.00319579
1691765279516756,0.11492168,0.00478840,10.49618053,-0.15233281,0.01491370,-0.00852212
1691765279518802,-0.14365210,0.27772740,10.39083576,-0.07030746,-0.03728426,0.00532632
1691765279520764,0.41180268,0.72304893,10.27112484,-0.07350325,-0.05752428,0.01065264
1691765279522752,-0.07182605,-0.08619126,10.20408726,-0.04580637,-0.08735169,-0.01065264
1691765279524764,0.26336220,0.62249243,10.14183807,0.01065264,-0.10759171,-0.01065264
1691765279526727,0.11971009,0.04788403,10.11789608,0.00745685,-0.09374327,-0.03302320
1691765279528803,0.30645782,0.52672440,10.07480049,-0.00213053,-0.07989483,-0.04687164
1691765279530754,0.31124622,0.26815060,10.11789608,0.00958738,-0.05858954,-0.04793690
1691765279532781,-0.09576806,0.22505496,10.09874249,-0.03834952,-0.02024002,-0.04474111
1691765279534789,0.15322891,0.39743748,10.01255131,-0.03621899,-0.00532632,-0.02663161
1691765279536826,-0.08140286,-0.21068975,10.16099167,-0.02556635,0.00958738,-0.00958738
1691765279538765,-0.22984336,0.19632454,10.20887566,-0.05752428,0.04687164,-0.01065264
1691765279540793,0.00000000,0.03830723,10.05564690,-0.08628642,0.05752428,0.02450108
1691765279542834,-0.12928689,-0.28730419,10.38604736,-0.10333065,0.07137272,0.02130529
1691765279544761,-0.08619126,0.20590134,10.19451046,-0.10759171,0.06817693,0.02556635
1691765279546753,-0.01436521,-0.26336220,10.27591324,-0.13102752,0.07989483,0.00106526
1691765279548762,-0.04309563,0.45010993,10.36689377,-0.11185277,0.07350325,-0.01065264
1691765279550848,0.00000000,0.04788403,10.11310768,-0.10759171,0.06711166,-0.00532632
1691765279552815,-0.05267244,-0.15322891,10.40041256,-0.10759171,0.06817693,-0.00319579
1691765279554824,-0.08619126,0.29688102,10.24718285,-0.12037488,0.07030746,0.00213053
1691765279556740,0.05267244,-0.42616791,10.29027843,-0.13528858,0.07350325,-0.00319579
1691765279558839,0.01915361,0.37828386,10.49139214,-0.13209279,0.06391586,0.00852212
1691765279560787,0.00478840,-0.05267244,10.25197124,-0.12463594,0.05645901,-0.00639159
1691765279562838,0.11013328,0.07661445,10.40998936,-0.12037488,0.02769688,0.00745685
1691765279564769,0.04309563,0.45968673,10.26633644,-0.12037488,-0.00106526,0.00639159
1691765279566800,-0.01915361,-0.45010993,10.12747288,-0.11291803,-0.01491370,0.00639159
1691765279568802,0.15801731,0.53630120,10.31900978,-0.11291803,-0.00213053,-0.00639159
1691765279570795,-0.05746084,-0.19632454,10.04128170,-0.11291803,-0.00213053,0.01597897
1691765279572764,0.16759412,0.05746084,10.08437729,-0.10972223,-0.00213053,0.00106526
1691765279574785,0.09576806,0.52672440,10.10353088,-0.09587380,0.01810949,0.00106526
1691765279576825,-0.14844051,-0.42137951,9.98860931,-0.08948221,0.03195793,-0.00852212
1691765279578775,0.22505496,0.70389527,10.11310768,-0.08096009,0.03834952,-0.01278317
1691765279580776,-0.26336220,-0.18195933,9.92636013,-0.05539375,0.03089267,-0.02024002
1691765279582765,-0.14844051,-0.02873042,9.90720654,-0.03834952,0.02237055,-0.00639159
1691765279584840,0.08619126,0.53151280,9.86889935,-0.03302320,0.02556635,-0.01278317
1691765279586790,-0.25857377,-0.34476504,9.84016895,-0.01491370,0.02343582,0.00106526
1691765279588765,0.18674773,0.71347213,9.83538055,0.00319579,0.02024002,0.00319579
1691765279590777,-0.03830723,0.04309563,9.75876617,0.01384844,0.02343582,0.00426106
1691765279592840,-0.09097967,0.17717093,9.74440098,0.02130529,0.02556635,0.00319579
1691765279594943,0.16280572,0.40701428,9.75876617,0.02876214,0.02024002,0.00745685
1691765279596778,-0.26336220,-0.41659111,9.83059216,0.02130529,0.02769688,0.01491370
1691765279598768,0.08140286,0.48841715,9.75397778,0.02876214,0.01384844,0.00213053
1691765279600828,0.07661445,-0.19632454,9.79228497,0.02769688,0.00852212,0.00852212
1691765279602904,-0.23942018,0.08619126,9.76834297,0.01917476,0.00532632,0.00000000
1691765279604767,0.31124622,0.39743748,9.75876617,0.01384844,-0.00426106,0.00000000
1691765279606742,-0.04309563,-0.22984336,9.90241814,0.00852212,-0.02237055,0.01065264
1691765279608837,-0.00478840,0.55066639,9.75876617,0.01597897,-0.04154531,0.01065264
1691765279610868,0.24899697,-0.17717093,9.92636013,0.00000000,-0.05539375,0.01278317
1691765279612833,0.00957681,0.57939678,9.84974575,-0.01810949,-0.06817693,0.01810949
1691765279614788,0.27772740,0.23942018,9.80186176,-0.01917476,-0.06817693,0.02343582
1691765279616813,0.01915361,-0.30166942,9.99339771,0.00000000,-0.06178534,0.01597897
1691765279618813,-0.04788403,0.56981999,9.79707336,0.00106526,-0.06072007,0.00213053
1691765279620850,0.35434186,0.04309563,9.89284134,0.00852212,-0.06498113,-0.01384844
1691765279622767,-0.26815060,0.23942018,9.95509052,0.01704423,-0.07669904,-0.00852212
1691765279624769,0.20590134,0.33997664,9.67257500,0.03728426,-0.09480853,-0.01065264
1691765279626797,-0.00957681,-0.20590134,10.02691650,0.04580637,-0.09693906,-0.00958738
1691765279628800,-0.24420857,0.40222588,9.81622696,0.05858954,-0.08096009,-0.00426106
1691765279630767,0.21068975,-0.13407530,9.77313137,0.08309063,-0.07137272,-0.00426106
1691765279632788,-0.22026655,0.22505496,9.93114853,0.09800433,-0.05965481,-0.01065264
1691765279634837,0.14844051,0.40222588,9.58159542,0.09906960,-0.04580637,-0.00958738
1691765279636755,0.03830723,-0.05267244,9.97903252,0.09587380,-0.02556635,-0.01065264
1691765279638764,-0.47405192,-0.41659111,9.89284134,0.09161274,-0.01917476,-0.00319579
1691765279640767,-0.87148941,-0.83318222,10.27112484,0.07669904,-0.01917476,0.00213053
1691765279642839,-0.90979666,-0.25857377,10.21366405,0.06924219,-0.02237055,0.01171791
1691765279644781,-0.66558808,-0.56503159,10.03170490,0.06817693,-0.02876214,-0.00426106
1691765279646818,-0.75656772,-0.18195933,10.15141487,0.06178534,-0.04048005,0.00639159
1691765279648807,-0.44532153,-0.01436521,9.82101536,0.06817693,-0.04900216,0.00106526
1691765279650842,-0.43095630,-0.49320555,9.95509052,0.08309063,-0.05752428,0.00532632
1691765279652796,-0.21068975,0.13886370,9.92636013,0.09480853,-0.04900216,-0.00213053
1691765279654767,-0.15322891,-0.25857377,9.82101536,0.08841695,-0.04580637,0.00000000
1691765279656765,-0.18195933,0.01915361,9.96945572,0.09161274,-0.04900216,0.00106526
1691765279658824,0.07661445,0.38307226,9.83538055,0.10759171,-0.04474111,-0.00319579
1691765279660822,-0.16280572,-0.21547815,9.98860931,0.11504856,-0.04154531,-0.00319579
1691765279662766,0.06703765,0.34955344,9.94072533,0.10120012,-0.04474111,-0.00106526
1691765279664808,-0.08140286,-0.20111294,9.94551373,0.08628642,-0.02982740,0.00000000
1691765279666770,-0.23463176,-0.11971009,9.98860931,0.08096009,-0.02876214,0.00745685
1691765279668769,0.22505496,0.39264908,9.92636013,0.08415589,-0.03195793,0.01065264
1691765279670769,-0.25378537,-0.05267244,9.95509052,0.08309063,-0.02450108,0.00213053
1691765279672809,0.18674773,0.39743748,9.89284134,0.07776430,-0.02556635,-0.00106526
1691765279674788,0.10055647,0.03351882,10.02691650,0.07776430,-0.02556635,-0.00532632
1691765279676789,-0.29209262,-0.06224924,9.96466732,0.09161274,-0.02556635,-0.00106526
1691765279678875,0.33518824,0.40222588,9.87368774,0.08415589,-0.02663161,0.00000000
1691765279680776,-0.26815060,-0.09576806,9.95509052,0.07776430,-0.03728426,-0.01810949
1691765279682786,0.14844051,0.28251579,9.84974575,0.08415589,-0.03515373,-0.01384844
1691765279684922,-0.19632454,-0.31603462,10.07001209,0.07350325,-0.04793690,-0.01491370
1691765279686743,-0.28251579,-0.01436521,9.95987892,0.07776430,-0.06391586,-0.01384844
1691765279688765,0.18674773,0.04309563,10.03170490,0.09054748,-0.07243798,-0.01597897
1691765279690759,-0.16280572,-0.26336220,10.05564690,0.09693906,-0.08096009,-0.01917476
1691765279692905,0.39743748,0.56981999,9.85453415,0.10439591,-0.08415589,-0.02556635
1691765279694794,0.20590134,-0.04788403,10.02212811,0.11398330,-0.08628642,-0.01917476
1691765279696792,-0.39264908,-0.10534488,9.89762974,0.10546118,-0.08202536,-0.01810949
1691765279698770,0.32082301,0.44053310,9.77313137,0.09480853,-0.07456851,-0.01810949
1691765279700788,-0.12449849,-0.29688102,10.06522369,0.09267800,-0.07243798,-0.00745685
1691765279702821,0.22505496,0.31603462,9.70609379,0.06498113,-0.07030746,0.00106526
1691765279704796,0.27772740,-0.06224924,9.94551373,0.05858954,-0.06604639,0.00745685
1691765279706746,-0.31603462,-0.05746084,9.91678333,0.06498113,-0.06817693,0.01278317
1691765279708812,0.18674773,0.41659111,9.59596062,0.06924219,-0.07563377,0.00639159
1691765279710878,-0.01436521,-0.25857377,9.95509052,0.07456851,-0.08096009,0.00745685
1691765279712768,-0.13407530,0.26336220,9.58159542,0.07243798,-0.06498113,0.00319579
1691765279714757,0.26815060,-0.07182605,9.65342140,0.09161274,-0.07137272,0.01171791
1691765279716794,-0.10534488,0.36870706,9.61032581,0.08628642,-0.06711166,-0.00426106
1691765279718834,0.08619126,0.40222588,9.52413464,0.07456851,-0.06391586,0.01384844
1691765279720825,0.06703765,-0.21547815,9.90241814,0.07030746,-0.04261058,-0.00106526
1691765279722793,-0.06224924,0.33997664,9.70130539,0.09587380,-0.02982740,-0.00426106
1691765279724795,-0.02394202,-0.19632454,9.93593693,0.08628642,-0.01917476,-0.01171791
1691765279726865,-0.22026655,-0.08140286,9.97903252,0.07563377,-0.00958738,-0.00852212
1691765279728789,0.15801731,-0.00478840,9.74918938,0.08415589,0.00852212,-0.00639159
1691765279730702,-0.08619126,-0.28730419,9.92157173,0.08309063,0.01384844,-0.00319579
1691765279732772,0.01915361,0.54108959,9.70609379,0.05965481,0.00852212,-0.00532632
1691765279734843,0.04309563,-0.07661445,9.76834297,0.05539375,0.00852212,-0.00639159
1691765279736804,-0.11971009,-0.20111294,9.95509052,0.06178534,0.00958738,0.00319579
1691765279738783,0.13407530,0.56981999,9.73482418,0.05645901,0.00426106,0.00319579
1691765279740955,-0.06224924,-0.17238252,9.89762974,0.04474111,-0.01278317,0.01065264
1691765279742839,0.12449849,0.27293900,9.81622696,0.03515373,-0.01278317,0.01065264
1691765279744811,0.10534488,0.12928689,9.80665016,0.03408846,-0.02130529,-0.00106526
1691765279746754,-0.12449849,-0.29688102,9.86889935,0.05113269,-0.03195793,-0.00426106
1691765279748736,0.17717093,0.42616791,9.81143856,0.05006743,-0.03408846,-0.00532632
1691765279750847,-0.11492168,-0.27772740,9.77791977,0.05432849,-0.03621899,-0.00639159
1691765279752849,0.22984336,0.18195933,9.74440098,0.05645901,-0.04261058,-0.01065264
1691765279754793,0.20590134,0.28251579,9.81622696,0.05006743,-0.04154531,0.00000000
1691765279756774,-0.16759412,-0.23942018,9.72524738,0.03302320,-0.03302320,0.00639159
1691765279758868,0.37349546,0.54108959,9.67736340,0.04474111,-0.04367584,0.00000000
1691765279760781,-0.28730419,0.01436521,9.72524738,0.07030746,-0.05113269,-0.00852212
1691765279762729,0.06224924,0.20590134,9.46188545,0.11504856,-0.05752428,-0.00532632
1691765279764784,-0.22026655,0.09097967,9.66299820,0.13635385,-0.06072007,-0.00213053
1691765279766774,-0.33518824,-0.31124622,9.56244183,0.13954964,-0.05113269,-0.01278317
1691765279768834,0.22026655,0.23942018,9.72045898,0.12250541,-0.03834952,-0.01597897
1691765279770791,-0.14844051,-0.07661445,9.82101536,0.10865697,-0.02982740,-0.00958738
1691765279772770,-0.10534488,0.07661445,9.49061584,0.06178534,-0.01597897,-0.01597897
1691765279774808,0.29209262,0.25857377,9.78270817,0.04048005,0.01065264,-0.02876214
1691765279776838,-0.43574470,-0.38786069,9.81143856,0.01917476,0.02024002,-0.01704423
1691765279778789,0.15801731,0.13407530,9.53849983,-0.01491370,0.04367584,-0.01278317
1691765279780791,-0.07661445,-0.19632454,9.96466732,-0.02982740,0.05113269,-0.01384844
1691765279782775,-0.32561144,-0.11971009,9.59117222,-0.03621899,0.05326322,-0.01065264
1691765279784839,0.25378537,0.11971009,9.69651699,-0.04793690,0.05858954,-0.01491370
1691765279786796,-0.34955344,-0.21068975,9.84974575,-0.04580637,0.05858954,-0.02237055
1691765279788773,0.13886370,0.22026655,9.48103905,-0.03195793,0.03089267,-0.00958738
1691765279790779,0.11971009,-0.11013328,9.95030212,-0.04687164,0.01810949,-0.01810949
1691765279792825,-0.17238252,0.03830723,9.69172859,-0.05326322,0.01171791,-0.00106526
1691765279794825,0.41659111,0.12928689,9.72045898,-0.05432849,-0.01810949,0.00958738
1691765279796774,-0.21547815,-0.06224924,10.01733971,-0.06178534,-0.03834952,0.00958738
1691765279798773,0.12449849,0.34955344,9.60553741,-0.05219796,-0.04154531,0.00852212
1691765279800839,0.21068975,-0.03830723,10.05085850,-0.04474111,-0.06711166,0.02663161
1691765279802790,-0.00957681,0.09097967,9.90241814,-0.06391586,-0.07563377,0.01704423
1691765279804813,0.30645782,0.03351882,9.82580376,-0.06498113,-0.06498113,0.02450108
1691765279806742,-0.11492168,-0.11013328,10.14183807,-0.05645901,-0.07350325,0.02556635
1691765279808936,0.21068975,0.12449849,9.80665016,-0.05113269,-0.06072007,0.01810949
1691765279810774,0.00000000,-0.04788403,9.99339771,-0.03834952,-0.05432849,0.02343582
1691765279812841,-0.02873042,0.09576806,9.88805294,-0.05326322,-0.04154531,0.00532632
1691765279814763,0.16280572,0.09576806,9.78270817,-0.06072007,-0.02237055,-0.00639159
1691765279816792,-0.22984336,-0.15322891,10.03170490,-0.06285060,-0.00319579,-0.01917476
1691765279818774,0.02394202,0.27772740,9.70609379,-0.05113269,0.00426106,-0.01065264
1691765279820799,-0.06224924,-0.07182605,10.00297451,-0.05752428,0.01278317,-0.01278317
1691765279822772,-0.07182605,0.05746084,9.82580376,-0.05113269,0.02663161,-0.00958738
1691765279824808,0.16280572,0.30645782,9.84495735,-0.05326322,0.03515373,-0.00532632
1691765279826778,-0.30166942,-0.22026655,10.04607010,-0.06285060,0.04793690,0.01384844
1691765279828795,0.05746084,0.34955344,9.73003578,-0.06604639,0.04367584,0.02237055
1691765279830786,-0.18674773,-0.03351882,10.00297451,-0.05539375,0.03728426,0.01065264
1691765279832807,-0.15801731,-0.18195933,9.81143856,-0.03834952,0.03941479,0.00745685
1691765279834900,0.30645782,0.40701428,9.89762974,-0.03621899,0.03515373,0.00106526
1691765279836782,-0.28251579,-0.30166942,9.94072533,-0.03621899,0.02450108,0.00958738
1691765279838792,0.30166942,0.37349546,9.69651699,-0.04474111,0.01278317,0.01597897
1691765279840811,-0.11013328,0.18195933,9.99339771,-0.06711166,0.00106526,0.01491370
1691765279842786,-0.09097967,-0.25857377,9.79707336,-0.07882957,-0.01491370,0.01810949
1691765279844815,0.37349546,0.31124622,10.03170490,-0.08096009,-0.02769688,0.00852212
1691765279846747,-0.40222588,-0.34476504,10.03649330,-0.06924219,-0.04474111,0.01278317
1691765279848813,0.32561144,0.23463176,9.85932255,-0.07882957,-0.05326322,0.01597897
1691765279850883,-0.07661445,0.20590134,10.22324085,-0.08522116,-0.05219796,0.03089267
1691765279852822,-0.04788403,-0.19153613,9.74440098,-0.09374327,-0.03834952,0.01171791
1691765279854789,0.41659111,0.39743748,9.91199493,-0.07456851,-0.02024002,0.01384844
1691765279856775,-0.38307226,-0.12928689,9.99818611,-0.07669904,-0.00852212,0.01917476
1691765279858848,0.09097967,0.14844051,9.64863300,-0.07669904,0.01065264,0.00319579
1691765279860906,-0.13407530,0.22026655,10.09395409,-0.07137272,0.04261058,-0.00106526
1691765279862772,0.07182605,0.17238252,9.60074902,-0.08415589,0.07350325,-0.01171791
1691765279864887,0.33039984,0.30166942,9.83538055,-0.08309063,0.08415589,-0.00852212
1691765279866785,-0.29688102,-0.13407530,10.06522369,-0.06604639,0.08309063,-0.01065264
1691765279868930,0.05746084,0.12928689,9.59596062,-0.06604639,0.08096009,-0.00852212
1691765279870818,-0.30645782,-0.08140286,10.03170490,-0.07030746,0.07563377,-0.01384844
1691765279872775,-0.30645782,-0.15801731,9.69651699,-0.06498113,0.07243798,-0.01171791
1691765279874828,0.39264908,0.23463176,9.71088219,-0.05113269,0.03621899,0.00532632
1691765279876823,-0.22984336,-0.10055647,10.04128170,-0.05752428,0.02237055,-0.00106526
1691765279878786,0.10534488,0.00957681,9.51455784,-0.05113269,0.01597897,0.00639159
1691765279880772,0.24420857,0.30645782,9.97903252,-0.05326322,-0.00106526,-0.00426106
1691765279882952,-0.11492168,0.04309563,9.81622696,-0.06072007,-0.00745685,-0.00213053
1691765279884883,0.20111294,0.13407530,10.05085850,-0.07350325,-0.00319579,-0.01171791
1691765279886767,-0.10534488,-0.01915361,10.11789608,-0.07350325,-0.01491370,-0.01171791
1691765279888808,0.06703765,0.00957681,9.67257500,-0.08415589,-0.02343582,-0.01278317
1691765279890766,0.02873042,0.06224924,10.06522369,-0.08628642,-0.02130529,-0.01597897
1691765279892934,-0.10534488,0.01436521,9.97424412,-0.08309063,-0.03408846,-0.01384844
1691765279894809,0.28730419,0.15801731,9.78749657,-0.08202536,-0.02876214,-0.01810949
1691765279896786,-0.06703765,0.07661445,10.13226128,-0.07989483,-0.03515373,-0.00426106
1691765279898798,0.16280572,0.21068975,9.78749657,-0.07882957,-0.02769688,-0.00532632
1691765279900860,-0.02873042,0.16759412,10.07001209,-0.06817693,-0.01171791,0.00319579
1691765279902813,-0.10055647,0.10055647,9.96466732,-0.05858954,0.01171791,-0.00745685
1691765279904829,0.11971009,0.16759412,9.84974575,-0.04580637,0.00426106,-0.00745685
1691765279906752,-0.24420857,-0.08619126,10.17056847,-0.06178534,0.01917476,-0.00106526
1691765279908900,0.01436521,0.07661445,9.80186176,-0.07350325,0.02024002,0.01491370
1691765279910832,-0.08619126,0.09576806,10.13226128,-0.07669904,0.02663161,0.01384844
1691765279912800,-0.10534488,0.10055647,10.03170490,-0.06604639,0.02982740,0.01491370
1691765279914782,0.15801731,0.24420857,9.94551373,-0.07030746,0.02982740,0.00852212
1691765279916766,-0.21068975,-0.10534488,10.15141487,-0.07350325,0.02982740,0.00958738
1691765279918796,0.11013328,0.22505496,9.75397778,-0.05858954,0.03408846,0.01491370
1691765279920787,-0.16280572,0.25857377,10.01733971,-0.03408846,0.04793690,0.00852212
1691765279922813,-0.15322891,0.15322891,9.79228497,-0.01171791,0.07243798,0.00426106
1691765279924820,0.24420857,0.40701428,9.73961258,0.00319579,0.08202536,0.01278317
1691765279926849,-0.29209262,-0.08140286,10.01255131,0.01065264,0.08948221,0.02237055
1691765279928846,0.12928689,0.22505496,9.60553741,0.02450108,0.09267800,0.02663161
1691765279930792,0.02873042,0.31603462,9.96945572,0.02556635,0.08841695,0.02769688
1691765279932817,-0.42137951,-0.12449849,9.71567059,0.01704423,0.07456851,0.02237055
1691765279934841,0.32561144,0.37349546,9.70609379,0.00532632,0.05539375,0.01278317
1691765279936807,-0.34476504,-0.21068975,9.96466732,-0.00639159,0.04474111,-0.00532632
1691765279938776,0.17238252,-0.00957681,9.50019264,-0.03195793,0.03621899,-0.00639159
1691765279940735,0.19153613,0.35913026,9.91678333,-0.04048005,0.05113269,-0.00106526
1691765279942873,-0.36391866,-0.12928689,9.61511421,-0.02982740,0.06072007,0.01917476
1691765279944857,0.37828386,0.46926352,9.49540424,-0.01917476,0.08096009,-0.00319579
1691765279946751,-0.23942018,-0.00478840,9.86411095,-0.01597897,0.09587380,0.00426106
1691765279948853,0.06224924,-0.08619126,9.32781029,-0.02130529,0.09800433,-0.00532632
1691765279950848,0.21068975,0.24899697,9.76355457,-0.03621899,0.09267800,0.01171791
1691765279952779,-0.46447513,-0.25378537,9.65820980,-0.04154531,0.08309063,0.00852212
1691765279954838,0.28730419,0.34476504,9.51455784,-0.04793690,0.06604639,0.00213053
1691765279956755,-0.20111294,0.06703765,10.06043530,-0.05858954,0.05326322,-0.00106526
1691765279958819,-0.09097967,-0.18674773,9.50976944,-0.05539375,0.04687164,-0.00639159
1691765279960817,0.34476504,0.26336220,9.90720654,-0.04793690,0.02663161,-0.00639159
1691765279962797,-0.32561144,-0.15801731,9.87368774,-0.05006743,0.01917476,0.00426106
1691765279964774,0.27293900,0.23463176,9.55286503,-0.02982740,0.02769688,0.01065264
1691765279966755,-0.02394202,0.29688102,9.99339771,0.00106526,0.03834952,0.02024002
1691765279968850,-0.07182605,0.10534488,9.43315506,0.01597897,0.04687164,0.02556635
1691765279970841,0.22505496,0.36391866,9.69172859,0.02876214,0.07350325,0.02450108
1691765279972781,-0.32082301,-0.03830723,9.83538055,0.04474111,0.08522116,0.02024002
1691765279974794,0.11492168,0.22984336,9.39963627,0.04367584,0.07882957,0.01597897
1691765279976813,-0.02394202,0.23942018,9.96466732,0.02769688,0.08202536,0.01597897
1691765279978779,-0.12928689,-0.09097967,9.54807663,0.02237055,0.06924219,0.01810949
1691765279980803,0.29209262,0.13886370,9.63905621,0.00532632,0.05858954,0.01704423
1691765279982782,-0.22505496,-0.08619126,9.90241814,-0.01491370,0.03941479,-0.00639159
1691765279984898,0.08619126,0.01915361,9.56244183,-0.04261058,0.03941479,-0.00319579
1691765279986818,-0.06703765,0.12449849,9.93114853,-0.03728426,0.04261058,0.00000000
1691765279988776,-0.00957681,0.04309563,9.57201862,-0.03089267,0.05752428,0.01491370
1691765279990774,0.11013328,0.17717093,9.59117222,-0.00745685,0.06178534,0.01065264
1691765279992846,-0.17238252,0.01915361,9.83059216,-0.00106526,0.07882957,0.02024002
1691765279994835,0.13886370,0.13886370,9.41400146,0.01278317,0.09693906,0.01704423
1691765279996748,-0.06224924,0.20111294,9.80186176,-0.00106526,0.09587380,0.01065264
1691765279998796,0.00478840,0.11971009,9.64384460,-0.00106526,0.10013486,0.02556635
1691765280000852,0.13886370,0.20590134,9.66778660,-0.01278317,0.08735169,0.02130529
1691765280002804,-0.19632454,-0.05746084,9.92636013,-0.01171791,0.07563377,0.01065264
1691765280004784,0.13407530,-0.05267244,9.69651699,-0.02556635,0.06178534,-0.00426106
1691765280006757,-0.11492168,-0.03351882,10.05564690,-0.02663161,0.03834952,-0.00745685
1691765280008832,0.05267244,-0.02873042,9.86411095,-0.03089267,0.02024002,-0.01384844
1691765280010775,0.29688102,0.18195933,9.87368774,-0.03408846,0.01384844,-0.01597897
1691765280012864,-0.19632454,0.19153613,9.97424412,-0.02876214,0.01704423,-0.00213053
1691765280014776,0.33997664,0.32082301,9.61032581,-0.00852212,0.02556635,0.00319579
1691765280016817,-0.10534488,0.21068975,9.91199493,0.01491370,0.04900216,0.01171791
1691765280018814,-0.08619126,0.08140286,9.67257500,0.03834952,0.06391586,0.00319579
1691765280020746,0.23463176,0.22026655,9.68215179,0.05539375,0.07563377,0.00745685
1691765280022776,-0.31603462,0.01436521,9.90241814,0.06711166,0.09267800,0.00852212
1691765280024804,0.22984336,0.14365210,9.54328823,0.07669904,0.08948221,0.01810949
1691765280026812,0.02873042,0.23463176,9.99818611,0.06711166,0.08202536,0.01171791
1691765280028811,-0.17238252,0.03351882,9.74918938,0.02769688,0.06711166,0.01384844
1691765280030778,0.38307226,0.16280572,9.80186176,0.00852212,0.04261058,0.01810949
1691765280032799,-0.36391866,-0.08619126,10.08437729,-0.00426106,0.02130529,0.00745685
1691765280034872,0.29209262,0.00957681,9.70130539,-0.02769688,0.00106526,-0.00106526
1691765280036760,0.17717093,0.01915361,10.19929886,-0.04474111,-0.02343582,-0.00319579
1691765280038932,-0.14844051,-0.08619126,9.88805294,-0.04900216,-0.02982740,0.00958738
1691765280040782,0.55066639,0.15801731,9.90720654,-0.03941479,-0.03728426,0.00106526
1691765280043002,-0.31124622,0.23942018,10.16578007,-0.03302320,-0.04580637,0.00000000
1691765280044827,0.23463176,0.21068975,9.73003578,-0.02663161,-0.04261058,0.00319579
1691765280046759,0.10534488,0.08140286,10.14183807,-0.02876214,-0.03621899,-0.00319579
1691765280048816,-0.20590134,-0.04788403,9.94072533,-0.02982740,-0.03195793,-0.00745685
1691765280050846,0.34476504,0.07182605,9.94072533,-0.03408846,-0.01917476,-0.02663161
1691765280052822,-0.28251579,0.19153613,10.24239445,-0.02450108,-0.01171791,-0.02982740
1691765280054822,0.09576806,0.08140286,9.74440098,-0.00958738,-0.00639159,-0.03941479
1691765280056762,0.09576806,0.24899697,10.15141487,0.00106526,-0.00745685,-0.02556635
1691765280058842,-0.21547815,0.09576806,9.96945572,-0.00319579,0.00426106,-0.01810949
1691765280060820,0.04309563,0.05267244,9.79228497,0.00958738,0.03089267,-0.01065264
1691765280062775,-0.17238252,0.25378537,9.83538055,0.03089267,0.06711166,0.00745685
1691765280064768,-0.16759412,0.02873042,9.56244183,0.05432849,0.07563377,0.00745685
1691765280066827,-0.00957681,0.40222588,9.91678333,0.07776430,0.10865697,0.00319579
1691765280068802,-0.22026655,0.30645782,9.75876617,0.08735169,0.13528858,-0.00745685
1691765280070808,0.09097967,0.23463176,9.50976944,0.10013486,0.15126754,0.00213053
1691765280072798,-0.06224924,0.33997664,9.98382092,0.09267800,0.15765914,0.01171791
1691765280074818,-0.22505496,-0.03830723,9.50498104,0.08735169,0.14594123,0.00852212
1691765280076768,0.04788403,0.20590134,9.78270817,0.09054748,0.12889700,0.00745685
1691765280078781,-0.30166942,-0.02873042,9.81622696,0.08415589,0.11930962,-0.01278317
1691765280080774,0.11971009,0.04788403,9.54807663,0.07882957,0.09374327,-0.00958738
1691765280082770,-0.05267244,0.24899697,9.90720654,0.07456851,0.07456851,-0.02769688
1691765280084845,0.08619126,0.02873042,9.52892303,0.05858954,0.06924219,-0.02237055
1691765280086759,0.21547815,0.22505496,9.69651699,0.05219796,0.06072007,-0.02450108
1691765280088791,0.09097967,0.15322891,9.78749657,0.06178534,0.03834952,-0.00532632
1691765280090873,0.28730419,0.13886370,9.54807663,0.06072007,0.03834952,-0.00319579
1691765280092979,-0.11492168,0.12928689,9.91199493,0.06498113,0.02663161,-0.00745685
1691765280094809,0.11013328,-0.02394202,9.67257500,0.07243798,0.00745685,-0.00319579
1691765280096788,0.01436521,-0.03351882,9.84016895,0.06924219,0.00532632,0.00000000
1691765280098814,0.01436521,0.03830723,9.83059216,0.06285060,0.00852212,0.00213053
1691765280100827,0.39264908,0.02394202,9.65820980,0.05432849,-0.00958738,-0.00639159
1691765280102810,-0.13407530,0.11971009,9.95987892,0.03515373,0.00852212,0.00426106
1691765280104829,0.18195933,0.07661445,9.62469101,0.00852212,0.01810949,-0.00319579
1691765280106776,-0.00957681,-0.01915361,9.85932255,0.00745685,0.01491370,-0.00213053
1691765280108838,-0.19632454,0.09576806,9.83538055,-0.00213053,0.01384844,-0.00852212
1691765280110813,0.29688102,-0.22984336,9.79707336,-0.02024002,0.00532632,-0.00958738
1691765280112811,-0.25378537,-0.15322891,10.09874249,-0.03728426,0.00213053,-0.00213053
1691765280114845,0.24420857,0.04788403,9.80186176,-0.05965481,-0.01491370,0.00958738
1691765280116782,0.03830723,-0.06224924,10.14662647,-0.07350325,-0.02876214,0.00213053
1691765280118832,-0.11971009,0.21547815,10.03170490,-0.08309063,-0.05113269,0.00000000
1691765280120831,0.45010993,-0.13886370,9.98382092,-0.09693906,-0.05752428,-0.00745685
1691765280122781,-0.34476504,-0.06224924,10.15620327,-0.09267800,-0.07882957,-0.02343582
1691765280124807,0.26815060,0.02873042,9.85932255,-0.09693906,-0.09906960,-0.01704423
1691765280126810,0.00000000,-0.06703765,10.16578007,-0.06817693,-0.08522116,0.00532632
1691765280128833,-0.09576806,0.45010993,9.86411095,-0.04048005,-0.06711166,0.01278317
1691765280130779,0.37828386,0.16280572,9.77313137,0.00745685,-0.04900216,0.02450108
1691765280132798,-0.25378537,0.27772740,10.05564690,0.01704423,-0.03089267,0.01171791
1691765280134925,0.03351882,0.25857377,9.56723022,0.03515373,-0.01065264,0.01278317
1691765280136838,-0.10055647,-0.00478840,10.00297451,0.04154531,0.00106526,0.00532632
1691765280138784,-0.32082301,0.22026655,9.84974575,0.03408846,-0.00426106,0.01597897
1691765280140887,0.17717093,-0.10055647,9.74918938,0.00852212,-0.00852212,-0.00639159
1691765280142856,-0.12449849,0.07661445,10.16099167,-0.01065264,-0.01704423,0.00319579
1691765280144834,0.10055647,0.16759412,9.74440098,-0.02024002,-0.03728426,-0.01597897
1691765280146770,0.13407530,-0.02873042,10.11789608,-0.05645901,-0.05858954,-0.00745685
1691765280148792,-0.19153613,0.25857377,10.05564690,-0.04048005,-0.08096009,-0.02663161
1691765280150857,0.20111294,-0.14844051,9.84974575,-0.05113269,-0.09587380,-0.01597897
1691765280152845,-0.05267244,0.14365210,10.15620327,-0.05858954,-0.09693906,-0.00106526
1691765280154831,0.07661445,0.08619126,9.80186176,-0.07137272,-0.08522116,0.01704423
1691765280156765,0.14844051,-0.01436521,10.01255131,-0.04154531,-0.07137272,0.03089267
1691765280158999,-0.04788403,0.54108959,9.97424412,-0.03728426,-0.04900216,0.02024002
1691765280160819,0.15322891,-0.01436521,9.73961258,-0.01917476,-0.03728426,0.02237055
1691765280162801,-0.09576806,0.23463176,10.11789608,-0.02556635,-0.03195793,0.01704423
1691765280164792,-0.08619126,0.10534488,9.77313137,-0.01491370,-0.03408846,0.02982740
1691765280166825,-0.05267244,-0.28251579,9.92636013,-0.02769688,-0.05113269,0.00319579
1691765280168834,-0.09576806,0.37349546,10.06043530,-0.03621899,-0.06391586,0.00532632
1691765280170803,0.04788403,-0.21547815,9.78270817,-0.03834952,-0.07350325,-0.00319579
1691765280172878,0.07661445,0.36391866,9.98382092,-0.02024002,-0.07989483,-0.00426106
1691765280174823,0.10055647,0.60333884,9.76355457,-0.01597897,-0.06072007,0.01171791
1691765280176797,-0.09576806,-0.09097967,9.79707336,0.01597897,-0.03195793,0.01810949
1691765280178783,-0.01436521,0.53151280,9.84016895,0.02663161,-0.00852212,0.00213053
1691765280180789,-0.11013328,-0.17717093,9.64384460,0.03515373,0.00426106,0.00319579
1691765280182786,-0.18674773,-0.03351882,9.84974575,0.02982740,0.02663161,0.00213053
1691765280184898,-0.02394202,0.20590134,9.66778660,0.04367584,0.02130529,-0.00213053
1691765280186821,-0.18674773,-0.21547815,9.75876617,0.05645901,0.01278317,-0.01597897
1691765280188847,0.03351882,0.55066639,9.75876617,0.05113269,0.00213053,-0.00532632
1691765280190817,0.09097967,0.01915361,9.71088219,0.02769688,-0.02130529,-0.00532632
1691765280192826,-0.10055647,-0.02873042,9.81622696,0.03089267,-0.05006743,-0.00426106
1691765280194821,0.24420857,0.22984336,9.72524738,0.03302320,-0.07030746,0.00000000
1691765280196801,-0.11971009,-0.30645782,9.81143856,-0.00426106,-0.08415589,-0.00106526
1691765280198851,0.03830723,0.28730419,9.77791977,0.01171791,-0.09480853,0.00106526
1691765280200848,0.23942018,-0.10055647,9.82101536,0.02876214,-0.10120012,-0.00426106
1691765280202833,-0.13407530,0.04309563,9.86889935,0.01171791,-0.10972223,-0.00319579
1691765280204836,0.37828386,0.45489833,9.77313137,-0.01597897,-0.09374327,-0.00639159
1691765280206791,-0.03351882,-0.24899697,9.87368774,0.01597897,-0.07989483,0.01384844
1691765280208822,-0.29209262,-0.06703765,9.84974575,0.02343582,-0.07456851,0.00106526
1691765280210787,0.20590134,0.04788403,9.85453415,0.04154531,-0.06604639,-0.01597897
1691765280212893,-0.06703765,-0.08619126,9.98382092,0.03834952,-0.04793690,-0.00532632
1691765280214781,0.18674773,0.27293900,9.61990261,0.04793690,-0.03728426,-0.00106526
1691765280216805,0.33039984,0.00000000,9.76355457,0.04793690,-0.03834952,-0.00319579
1691765280218790,-0.23942018,0.36391866,9.82101536,0.01704423,-0.03834952,-0.00426106
1691765280221000,0.04788403,0.25378537,9.65342140,0.01491370,-0.02343582,0.00106526
1691765280222790,-0.24899697,0.06703765,9.99818611,0.04900216,-0.00319579,-0.02024002
1691765280224847,-0.22026655,0.38786069,9.82101536,0.05006743,-0.00106526,-0.01384844
1691765280226776,-0.01436521,-0.31603462,10.04128170,0.01597897,0.00745685,0.00639159
1691765280228817,-0.22505496,-0.01915361,10.14183807,0.00426106,0.00639159,0.01597897
1691765280230786,0.28251579,-0.11013328,9.84974575,0.00106526,0.00000000,0.00958738
1691765280232798,0.14365210,-0.29209262,10.10353088,-0.01171791,-0.01065264,0.01171791
1691765280234897,-0.30166942,0.21547815,10.05085850,-0.00958738,-0.02982740,0.00532632
1691765280236792,0.18674773,-0.27293900,10.11310768,-0.04261058,-0.04900216,-0.00639159
1691765280238801,-0.20111294,-0.07661445,10.16578007,-0.05113269,-0.04900216,-0.01597897
1691765280240787,0.04309563,0.40222588,9.79228497,-0.04687164,-0.04793690,0.00106526
1691765280242825,0.23942018,-0.09097967,9.97903252,-0.03302320,-0.03302320,0.00213053
1691765280244829,-0.03830723,0.43574470,9.64384460,-0.00106526,-0.00106526,0.00319579
1691765280246809,0.14365210,-0.18674773,9.85453415,0.02130529,0.01278317,0.00426106
1691765280248788,-0.16280572,-0.01915361,10.03649330,0.01917476,0.01917476,0.01065264
1691765280250830,-0.14365210,0.37349546,9.70609379,0.01704423,0.01278317,0.02343582
1691765280252828,-0.01436521,-0.18674773,9.80665016,0.02024002,0.00852212,0.01491370
1691765280254784,-0.11971009,0.43574470,9.99818611,0.02024002,0.01384844,0.00958738
1691765280256764,0.02394202,-0.11492168,9.68215179,0.05752428,-0.01278317,0.00319579
1691765280258832,0.01436521,0.10055647,9.84495735,0.06711166,-0.02237055,-0.00106526
1691765280260833,-0.00478840,0.50757074,9.50498104,0.04367584,-0.04474111,-0.01597897
1691765280262843,0.08140286,-0.08140286,9.31344414,0.07563377,-0.09374327,-0.01171791
1691765280264780,0.00000000,0.26815060,9.15063858,0.08735169,-0.10226539,-0.01171791
1691765280266803,0.15322891,0.03351882,8.60954952,0.07989483,-0.12676647,-0.01917476
1691765280268802,0.07661445,-0.15322891,8.55687714,0.10226539,-0.12357067,-0.00213053
1691765280270855,0.03830723,0.29688102,8.16422749,0.09906960,-0.12570120,-0.00852212
1691765280272779,0.02394202,-0.20590134,7.97269154,0.10439591,-0.12783173,0.00958738
1691765280274824,0.10534488,0.25378537,7.53215837,0.04048005,-0.12889700,-0.01491370
1691765280276800,0.02394202,-0.09576806,7.44596720,0.03728426,-0.17470337,-0.00106526
1691765280278912,-0.09097967,-0.22984336,7.52258158,0.01171791,-0.16085494,0.00745685
1691765280280785,0.22026655,0.11971009,7.02937603,-0.00958738,-0.23222765,-0.01065264
1691765280282783,0.08140286,-0.05746084,7.12514448,-0.01384844,-0.23648870,-0.00426106
1691765280284912,-0.00957681,-0.02873042,6.94797325,-0.08628642,-0.23116238,0.00532632
1691765280286796,0.07661445,-0.20111294,6.66545773,-0.06604639,-0.26738137,-0.00426106
1691765280288789,0.06703765,-0.00957681,6.93360806,-0.07989483,-0.25992453,-0.00426106
1691765280290868,-0.22505496,-0.18674773,6.89530087,-0.10013486,-0.24714135,-0.01065264
1691765280292919,0.19153613,-0.05746084,6.40688372,-0.07243798,-0.26205504,-0.01491370
1691765280294795,-0.14365210,0.42137951,6.63672733,-0.05326322,-0.19813919,-0.00426106
1691765280296779,-0.11013328,0.08140286,6.50265169,0.01810949,-0.16298546,0.02024002
1691765280298820,-0.00478840,0.13886370,6.40688372,0.05219796,-0.14487596,0.00958738
1691765280300852,-0.33997664,0.47405192,6.34463453,0.04580637,-0.10226539,-0.00106526
1691765280302786,-0.11492168,0.00957681,6.36857653,0.09800433,-0.09267800,0.01810949
1691765280304779,-0.23942018,0.06224924,6.45476770,0.07989483,-0.07030746,0.00319579
1691765280306779,-0.18674773,0.18674773,6.27280855,0.08841695,-0.06498113,-0.00106526
1691765280308875,-0.13886370,0.13886370,6.40209532,0.10972223,-0.05326322,-0.01278317
1691765280310818,-0.30645782,0.14365210,6.34942293,0.11291803,-0.02769688,-0.02343582
1691765280312807,-0.31603462,0.21547815,6.20098257,0.15552860,-0.02237055,-0.01704423
1691765280314807,-0.00957681,0.20590134,6.39730692,0.14913702,0.00319579,-0.02343582
1691765280316789,-0.17717093,0.00957681,6.41167212,0.15233281,0.00319579,-0.02130529
1691765280318909,-0.34955344,0.04309563,6.33026934,0.18322548,0.03195793,0.00106526
1691765280320835,0.02873042,0.20111294,6.35421133,0.16831177,0.03302320,0.00532632
1691765280322802,-0.08619126,0.07661445,6.56490088,0.15765914,0.02769688,0.01597897
1691765280324864,-0.35434186,0.15801731,6.54574728,0.15126754,0.03728426,0.02663161
1691765280326818,0.02873042,0.15801731,6.43561411,0.13741912,0.02024002,0.03195793
1691765280328885,0.02394202,0.02873042,6.73249531,0.11185277,0.01491370,0.02663161
1691765280330787,-0.23463176,0.19632454,6.75643730,0.08841695,-0.01065264,0.01810949
1691765280332883,0.09097967,0.07182605,6.70376492,0.08628642,-0.00639159,0.02237055
1691765280334888,0.00478840,-0.15801731,6.96712685,0.05752428,-0.02556635,-0.00639159
1691765280336841,-0.04309563,0.02394202,6.99585724,0.04154531,-0.06924219,-0.01278317
1691765280338787,0.06224924,-0.04788403,7.09162521,0.00426106,-0.04474111,0.00106526
1691765280340811,-0.06703765,-0.29209262,7.14429808,0.00106526,-0.05752428,0.00213053
1691765280342831,0.00000000,0.06224924,7.13950968,-0.00532632,-0.05752428,0.01810949
1691765280344825,-0.02394202,0.06703765,7.26400805,-0.04580637,-0.05539375,0.02982740
1691765280346763,-0.09097967,-0.18195933,7.21612406,-0.06072007,-0.05432849,0.03408846
1691765280348879,-0.13407530,0.05746084,7.36456442,-0.06285060,-0.04154531,0.01171791
1691765280350852,-0.03351882,0.04309563,7.45075560,-0.06711166,-0.04793690,0.01384844
1691765280352790,-0.14365210,0.08619126,7.43160200,-0.07350325,-0.04687164,0.02130529
1691765280354783,-0.25378537,0.15322891,7.66623402,-0.05432849,-0.03515373,0.00745685
1691765280356761,-0.00957681,0.03351882,7.63271523,-0.04048005,-0.04367584,-0.00213053
1691765280358934,-0.06224924,0.22026655,7.78115559,-0.06285060,-0.03515373,0.00852212
1691765280360819,-0.24899697,0.05267244,7.96311474,-0.06391586,-0.02663161,0.00426106
1691765280362840,-0.04309563,-0.11492168,7.80988598,-0.03408846,-0.01384844,-0.00213053
1691765280364785,-0.03830723,0.19153613,8.05888271,-0.04474111,-0.01384844,0.00426106
1691765280366808,-0.27293900,-0.07661445,8.18338108,-0.07137272,-0.01065264,0.00958738
1691765280368865,-0.08140286,-0.24420857,7.99184513,-0.06498113,0.02237055,-0.00106526
1691765280370794,-0.09097967,0.10055647,8.21211147,-0.05858954,0.02663161,-0.00745685
1691765280372784,-0.27293900,-0.21068975,8.29830265,-0.06498113,0.01917476,-0.00213053
1691765280374799,-0.13886370,-0.05267244,8.24563026,-0.07776430,0.03728426,0.00958738
1691765280376853,-0.21068975,0.20590134,8.44674397,-0.06817693,0.05539375,0.00745685
1691765280378842,-0.16759412,-0.20590134,8.41322517,-0.07669904,0.04793690,0.01278317
1691765280380780,0.10055647,0.26336220,8.39407158,-0.08948221,0.04793690,0.02130529
1691765280382834,-0.39264908,-0.23942018,8.62391472,-0.08628642,0.06072007,0.01384844
1691765280384876,-0.01915361,-0.16759412,8.50420475,-0.08202536,0.04900216,0.01597897
1691765280386772,0.29209262,0.42616791,8.65264511,-0.07989483,0.05006743,0.01810949
1691765280388786,-0.20590134,0.11013328,8.87291145,-0.08096009,0.06604639,0.02130529
1691765280390785,0.02873042,-0.06224924,8.64306831,-0.07243798,0.06924219,0.00319579
1691765280392845,0.17717093,0.42616791,8.98783302,-0.06924219,0.06817693,0.00319579
1691765280394808,-0.37349546,-0.12449849,9.00219822,-0.07350325,0.07030746,0.01597897
1691765280396763,0.05746084,0.03830723,8.84896946,-0.07776430,0.08415589,0.02450108
1691765280398725,-0.03351882,0.19632454,9.20331097,-0.07882957,0.08415589,0.02343582
1691765280400858,0.09576806,0.12449849,8.87769985,-0.06285060,0.08522116,0.01917476
1691765280402785,0.21068975,0.23463176,9.00219822,-0.07137272,0.09267800,0.02130529
1691765280404794,-0.23942018,0.09097967,9.27034855,-0.06817693,0.09800433,0.02343582
1691765280406767,-0.06224924,0.03830723,8.90164185,-0.05539375,0.10333065,0.01065264
1691765280408811,0.23463176,0.43574470,9.27992535,-0.05965481,0.10865697,0.00426106
1691765280410782,-0.21547815,0.04309563,9.26077175,-0.07137272,0.11398330,0.01065264
1691765280412790,0.14365210,0.24899697,9.04529381,-0.06924219,0.11930962,0.01491370
1691765280414775,-0.00957681,0.11013328,9.43794346,-0.04580637,0.11824435,0.01278317
1691765280416832,-0.21068975,-0.05267244,9.16021538,-0.04367584,0.12144014,0.01384844
1691765280418821,0.14365210,0.27772740,9.27992535,-0.03621899,0.12783173,0.01917476
1691765280420782,-0.22505496,-0.08619126,9.49540424,-0.04687164,0.13528858,0.01810949
1691765280422787,0.15801731,0.24420857,9.27034855,-0.03195793,0.14061491,0.02130529
1691765280424780,0.11492168,0.15801731,9.46667385,-0.02237055,0.14061491,0.01278317
1691765280426814,-0.20111294,0.00478840,9.40921307,-0.02237055,0.15339808,0.01597897
1691765280428797,0.16759412,0.34476504,9.27513695,-0.01171791,0.16405073,0.01278317
1691765280430785,-0.03830723,-0.00478840,9.61990261,-0.00319579,0.16724652,0.01491370
1691765280432816,-0.11013328,0.28730419,9.30386734,-0.00745685,0.15552860,0.00852212
1691765280435005,0.08140286,0.22505496,9.47146225,-0.02130529,0.14807175,0.02556635
1691765280436812,-0.13886370,-0.16280572,9.54328823,-0.02237055,0.13848437,0.02769688
1691765280438881,0.11492168,0.22984336,9.24640656,-0.02024002,0.12357067,0.01704423
1691765280440808,0.04309563,-0.12928689,9.58638382,-0.02024002,0.10972223,0.01384844
1691765280442985,-0.02394202,0.08140286,9.44273186,-0.03408846,0.10972223,0.01810949
1691765280444817,0.15322891,0.19153613,9.49540424,-0.03728426,0.10546118,0.02130529
1691765280446772,-0.01915361,-0.13407530,9.70130539,-0.03728426,0.09906960,0.01917476
1691765280448800,0.08140286,0.37349546,9.47625065,-0.03089267,0.09906960,0.01704423
1691765280450847,-0.01436521,-0.04788403,9.72045898,-0.02769688,0.08735169,0.01597897
1691765280452850,0.01436521,-0.00957681,9.59596062,-0.03408846,0.08841695,0.00958738
1691765280454814,0.08140286,0.25857377,9.56723022,-0.03834952,0.09374327,0.02343582
1691765280456769,-0.14844051,-0.28730419,9.76834297,-0.04687164,0.10013486,0.00745685
1691765280458837,0.08140286,0.28251579,9.56244183,-0.03621899,0.10013486,0.00745685
1691765280460925,-0.09576806,0.17238252,9.73482418,-0.02876214,0.11291803,0.00532632
1691765280462833,-0.06224924,-0.03351882,9.63905621,-0.01278317,0.10865697,0.01917476
1691765280464811,0.17717093,0.44532153,9.68694019,-0.03089267,0.11291803,0.02450108
1691765280466801,-0.18195933,-0.24420857,9.86411095,-0.04048005,0.11185277,0.03834952
1691765280468811,0.17238252,0.15322891,9.69172859,-0.04154531,0.10226539,0.04793690
1691765280470851,0.00000000,0.25857377,9.91678333,-0.04367584,0.09480853,0.04474111
1691765280472787,-0.22505496,-0.25378537,9.77791977,-0.06072007,0.08841695,0.03515373
1691765280474838,0.25378537,0.40222588,9.88326454,-0.08735169,0.07882957,0.02556635
1691765280476773,-0.27293900,-0.24420857,10.04128170,-0.08948221,0.07243798,0.02130529
1691765280478968,0.19153613,-0.07661445,9.86411095,-0.09054748,0.07030746,0.01278317
1691765280480791,-0.23942018,-0.08619126,10.13226128,-0.08096009,0.05432849,0.00426106
1691765280482824,-0.23463176,-0.20111294,9.94072533,-0.07669904,0.05326322,0.00319579
1691765280484856,0.40701428,0.43574470,9.98860931,-0.07243798,0.05539375,0.00532632
1691765280486768,-0.27293900,-0.03830723,10.13704967,-0.04900216,0.05752428,0.00852212
1691765280488791,0.19153613,-0.03351882,9.80186176,-0.02769688,0.06604639,0.01597897
1691765280490785,0.17717093,0.42137951,10.17056847,-0.02237055,0.07137272,0.01704423
1691765280492946,-0.43095630,-0.22026655,9.89284134,-0.03515373,0.08415589,0.01171791
1691765280494811,0.39743748,0.37349546,9.85932255,-0.04367584,0.08735169,0.00639159
1691765280496834,0.17238252,0.21547815,9.97903252,-0.05752428,0.08309063,0.01278317
1691765280498812,1.05823720,0.92895025,9.99818611,-0.06817693,0.08522116,0.00426106
1691765280500967,0.50757074,0.67516488,10.41477776,-0.06072007,0.08415589,-0.00213053
1691765280502817,0.84754741,0.74699092,9.94551373,-0.06711166,0.07137272,-0.00532632
1691765280504842,0.78050977,0.75656772,10.26154804,-0.07350325,0.06285060,-0.00319579
1691765280506785,-0.07182605,0.20111294,10.07958889,-0.07137272,0.07350325,-0.00639159
1691765280508819,0.65601128,0.52193600,9.78749657,-0.05326322,0.07350325,-0.00106526
1691765280510960,0.10055647,0.38786069,10.28070164,-0.04687164,0.07563377,-0.00106526
1691765280512831,-0.01436521,0.03830723,9.71567059,-0.03195793,0.08202536,0.01065264
1691765280514791,0.42616791,0.41180268,10.04607010,-0.00106526,0.08522116,0.01065264
1691765280516814,-0.38786069,0.01915361,10.12747288,0.00213053,0.09374327,0.00000000
1691765280518967,0.30645782,0.32561144,9.70130539,-0.00426106,0.09267800,-0.01065264
1691765280520800,-0.39743748,-0.11492168,10.11789608,-0.01171791,0.09267800,0.00319579
1691765280522814,-0.13886370,0.00478840,9.74918938,-0.00639159,0.08735169,0.00958738
1691765280524865,0.34476504,0.22984336,9.95030212,-0.01917476,0.09054748,-0.00106526
1691765280526779,-0.35913026,-0.08619126,10.15141487,-0.02237055,0.07776430,-0.00106526
1691765280528814,0.14365210,0.11971009,9.76355457,-0.04154531,0.07563377,0.00426106
