timestamp,accel_x,accel_y,accel_z,gyro_x,gyro_y,gyro_z
1704716169386439,0.02873042,-0.00957681,9.92157173,0.00639159,0.01384844,0.01065264
1704716169388539,0.02394202,-0.00478840,9.92157173,0.00852212,0.00426106,0.00106526
1704716169390383,0.02394202,0.00478840,9.91678333,0.01384844,0.01491370,-0.01065264
1704716169392461,0.02873042,0.00478840,9.91199493,0.01065264,0.03195793,-0.01065264
1704716169394491,0.03351882,0.00478840,9.90241814,0.00745685,0.03941479,0.00106526
1704716169396492,0.02873042,0.00000000,9.90241814,-0.00319579,0.03408846,0.01384844
1704716169398478,0.01915361,0.00478840,9.91199493,-0.00532632,0.01065264,0.01384844
1704716169400471,0.01436521,0.00957681,9.91199493,0.00106526,0.00213053,-0.00426106
1704716169402454,0.01436521,0.01436521,9.91199493,0.00639159,0.00745685,-0.00852212
1704716169404453,0.02394202,0.01436521,9.90241814,0.01065264,0.02982740,-0.00639159
1704716169406507,0.02394202,0.00957681,9.90720654,-0.00213053,0.03621899,0.00213053
1704716169408605,0.01915361,0.01436521,9.91199493,-0.00426106,0.02663161,0.00958738
1704716169410428,0.01436521,0.00957681,9.91678333,-0.00532632,0.00745685,0.00426106
1704716169412471,0.01436521,0.01436521,9.91678333,0.00319579,0.00106526,0.00106526
1704716169414510,0.01436521,0.01436521,9.91199493,0.00639159,0.01597897,-0.00745685
1704716169416407,0.01436521,0.01915361,9.91199493,0.01278317,0.02343582,-0.00745685
1704716169418492,0.00957681,0.01915361,9.91199493,-0.00213053,0.03408846,0.00532632
1704716169420486,0.00478840,0.01915361,9.91199493,-0.00532632,0.02450108,0.00745685
1704716169422589,0.00478840,0.01436521,9.91678333,-0.00639159,0.01171791,0.00958738
1704716169424475,0.00000000,0.00957681,9.91199493,-0.00319579,0.00532632,0.00000000
1704716169426625,0.00000000,0.01915361,9.91678333,0.00213053,0.00426106,-0.00852212
1704716169428445,0.00000000,0.01915361,9.91199493,0.00106526,0.02024002,-0.01065264
1704716169430495,0.00000000,0.01915361,9.91199493,-0.00532632,0.03089267,0.00958738
1704716169432495,0.00478840,0.00957681,9.91199493,-0.01278317,0.02982740,0.01065264
1704716169434561,0.00000000,0.00957681,9.92157173,-0.01384844,0.01917476,0.00852212
1704716169436510,0.00000000,0.00957681,9.92157173,0.00106526,0.00319579,-0.00639159
1704716169438521,0.00000000,0.01436521,9.92157173,0.00852212,0.00319579,-0.00958738
1704716169440496,0.00478840,0.01436521,9.92157173,0.01171791,0.02024002,-0.00426106
1704716169442475,0.00957681,0.00957681,9.91678333,-0.00426106,0.03728426,0.00319579
1704716169444453,0.00957681,0.00478840,9.92157173,-0.00852212,0.03302320,0.00426106
1704716169446527,0.00957681,0.00478840,9.92636013,-0.01171791,0.01704423,-0.00213053
1704716169448517,0.00957681,0.00478840,9.93114853,-0.00213053,0.00426106,-0.00426106
1704716169450436,0.01436521,0.00478840,9.92636013,0.00426106,0.01171791,-0.00106526
1704716169452472,0.01915361,0.00000000,9.92157173,0.00000000,0.02663161,0.00213053
1704716169454486,0.02394202,-0.00478840,9.91678333,-0.00532632,0.03834952,0.00106526
1704716169456528,0.02394202,-0.00957681,9.91678333,-0.00213053,0.03408846,0.00213053
1704716169458591,0.01915361,-0.00957681,9.92636013,0.00426106,0.02024002,0.00319579
1704716169460439,0.01436521,-0.00957681,9.92636013,0.00639159,0.00532632,-0.00426106
1704716169462510,0.01436521,-0.00957681,9.92157173,0.00745685,0.01065264,-0.00426106
1704716169464524,0.01915361,-0.00957681,9.91199493,0.00319579,0.02343582,-0.00319579
1704716169466601,0.01915361,-0.01436521,9.90720654,-0.00213053,0.03302320,-0.00213053
1704716169468455,0.01436521,-0.01436521,9.91199493,-0.00213053,0.02982740,0.00426106
1704716169470523,0.00478840,-0.00957681,9.92157173,0.00426106,0.01384844,0.00000000
1704716169472532,0.00000000,-0.00957681,9.92157173,0.00852212,0.00426106,-0.00532632
1704716169474494,0.00478840,-0.00957681,9.91199493,0.01065264,0.00745685,-0.00106526
1704716169476520,0.00478840,-0.01436521,9.90241814,0.00852212,0.02237055,0.00213053
1704716169478471,0.00478840,-0.01436521,9.89762974,-0.00426106,0.02876214,0.00213053
1704716169480492,0.00000000,-0.00957681,9.90241814,-0.00639159,0.02450108,0.00106526
1704716169482496,0.00000000,-0.00957681,9.90720654,-0.00213053,0.01171791,-0.00639159
1704716169484519,0.00000000,-0.00957681,9.90241814,0.00639159,0.00958738,-0.00852212
1704716169486496,0.00478840,-0.01436521,9.89284134,0.00852212,0.01491370,-0.00639159
1704716169488624,0.00000000,-0.01436521,9.88326454,0.00639159,0.02237055,0.00532632
1704716169490462,0.00000000,-0.01436521,9.88326454,0.01491370,0.01810949,0.01491370
1704716169492485,0.00000000,-0.00957681,9.89284134,0.02982740,0.01384844,0.02237055
1704716169494465,0.00478840,-0.01436521,9.90720654,0.03834952,0.01917476,0.06285060
1704716169496499,0.01436521,-0.00957681,9.91678333,-0.02663161,0.03302320,0.11611383
1704716169498521,0.02873042,-0.02394202,9.93114853,0.01384844,0.04261058,0.14274544
1704716169500473,0.04309563,-0.04309563,9.94072533,-0.01065264,0.05006743,0.21305288
1704716169502454,0.06224924,-0.06224924,9.95030212,-0.04687164,0.05539375,0.28975192
1704716169504472,0.07182605,-0.07661445,9.96945572,-0.05752428,0.04900216,0.34301513
1704716169506639,0.06224924,-0.08619126,9.98382092,-0.08415589,0.00852212,0.35686359
1704716169508477,0.05267244,-0.10055647,9.98860931,-0.10333065,0.00000000,0.36751622
1704716169510464,0.03830723,-0.10534488,10.00297451,-0.09587380,-0.02130529,0.38029939
1704716169512487,0.00957681,-0.10055647,10.03170490,-0.07137272,-0.06711166,0.39095205
1704716169514593,-0.02394202,-0.11492168,10.03170490,-0.02237055,-0.12570120,0.37497309
1704716169516498,-0.05746084,-0.11013328,10.03170490,0.04261058,-0.21198763,0.39627838
1704716169518501,-0.10055647,-0.10055647,10.07958889,0.02024002,-0.28655612,0.38349521
1704716169520519,-0.14365210,-0.10534488,10.11310768,-0.08522116,-0.34727621,0.36538571
1704716169522508,-0.16280572,-0.11013328,10.11789608,-0.15659387,-0.39840889,0.32277513
1704716169524629,-0.20111294,-0.11013328,10.17056847,-0.13635385,-0.47723848,0.25459820
1704716169526485,-0.22505496,-0.10055647,10.22802925,-0.18109496,-0.52730590,0.17683390
1704716169528532,-0.26815060,-0.08140286,10.31422138,-0.27590349,-0.56245965,0.12037488
1704716169530489,-0.31603462,-0.08619126,10.39562416,-0.30146983,-0.60187441,0.09800433
1704716169532676,-0.33518824,-0.07182605,10.46266174,-0.28016454,-0.62957126,0.05006743
1704716169534498,-0.38307226,-0.04309563,10.55364132,-0.38242993,-0.67324710,0.02876214
1704716169536523,-0.39264908,-0.01915361,10.66377449,-0.47297740,-0.71905351,0.00852212
1704716169538541,-0.41180268,-0.01915361,10.73081207,-0.51345748,-0.79575253,0.02237055
1704716169540489,-0.41659111,-0.01915361,10.77390766,-0.44634581,-0.86392945,0.04261058
1704716169542495,-0.40701428,0.00957681,10.81700325,-0.52197957,-0.87032104,0.02343582
1704716169544498,-0.40222588,0.02394202,10.86488724,-0.61039650,-0.92891061,0.03621899
1704716169546648,-0.40222588,0.02873042,10.94150162,-0.61146176,-0.90227896,0.03089267
1704716169548534,-0.39743748,0.02873042,10.95586681,-0.60507017,-0.90547478,0.04048005
1704716169550611,-0.38307226,0.06703765,10.98459721,-0.66152924,-0.84581995,0.04474111
1704716169552483,-0.38307226,0.07182605,11.00375080,-0.68496501,-0.87671262,0.12996227
1704716169554569,-0.36870706,0.08140286,10.96544361,-0.62850600,-0.83623260,0.09374327
1704716169556524,-0.35913026,0.10534488,10.93671322,-0.60507017,-0.77870828,0.08735169
1704716169558498,-0.34476504,0.11013328,10.86009884,-0.58589542,-0.72011876,0.10652644
1704716169560467,-0.32082301,0.12928689,10.77390766,-0.58696073,-0.72118402,0.11504856
1704716169562519,-0.31603462,0.13886370,10.70687008,-0.52730590,-0.61252707,0.09161274
1704716169564509,-0.31603462,0.14365210,10.61589050,-0.47404268,-0.50387007,0.10972223
1704716169566524,-0.31124622,0.16280572,10.54406452,-0.41971418,-0.36325517,0.11504856
1704716169568489,-0.31124622,0.16759412,10.48660374,-0.39308259,-0.24074976,0.15552860
1704716169570385,-0.32082301,0.17717093,10.44829655,-0.34088463,-0.14700650,0.13102752
1704716169572523,-0.33039984,0.20111294,10.40041256,-0.29294771,-0.00639159,0.16192019
1704716169574484,-0.35913026,0.20590134,10.35731697,-0.23648870,0.17257284,0.15978967
1704716169576517,-0.36391866,0.22026655,10.31900978,-0.19174761,0.25992453,0.14168017
1704716169578489,-0.37349546,0.24899697,10.27112484,-0.10546118,0.39095205,0.15020229
1704716169580514,-0.39743748,0.26336220,10.23760605,-0.02663161,0.43356264,0.17683390
1704716169582492,-0.41180268,0.26336220,10.16578007,0.03089267,0.56885123,0.15020229
1704716169584516,-0.41659111,0.26815060,10.09874249,0.07882957,0.65939867,0.16405073
1704716169586480,-0.42137951,0.29688102,10.04128170,0.13954964,0.70200926,0.20985709
1704716169588522,-0.42616791,0.29688102,9.94551373,0.22050974,0.75314194,0.17576863
1704716169590590,-0.42616791,0.27772740,9.84495735,0.28975192,0.83836311,0.13315806
1704716169592499,-0.40701428,0.29688102,9.71088219,0.34940675,0.90760529,0.14700650
1704716169594494,-0.39743748,0.30166942,9.65342140,0.39414784,0.90547478,0.17150757
1704716169596492,-0.38307226,0.28251579,9.55286503,0.44528052,0.91932321,0.14168017
1704716169598514,-0.36870706,0.25857377,9.44273186,0.49747849,0.97258645,0.07989483
1704716169600485,-0.33997664,0.25378537,9.30386734,0.51984906,0.97471696,0.11185277
1704716169602554,-0.30645782,0.24899697,9.19852257,0.51984906,0.92678005,0.15659387
1704716169604474,-0.26336220,0.19632454,9.03571701,0.54221958,0.93423688,0.09267800
1704716169606582,-0.24899697,0.18674773,8.94952583,0.58483016,0.92997587,0.10439591
1704716169608445,-0.19153613,0.18195933,8.78672028,0.59761333,0.90760529,0.13315806
1704716169610448,-0.13886370,0.15801731,8.67179871,0.56352490,0.88949579,0.16298546
1704716169612504,-0.11971009,0.14365210,8.59039593,0.58056909,0.84901577,0.17150757
1704716169614590,-0.09576806,0.11971009,8.47068596,0.60933125,0.83836311,0.13209279
1704716169616480,-0.02873042,0.10534488,8.31745625,0.58269966,0.82984102,0.14700650
1704716169618529,-0.00478840,0.09576806,8.25041866,0.57311225,0.76166409,0.16085494
1704716169620519,0.02394202,0.06224924,8.15943909,0.57417750,0.68283451,0.14274544
1704716169622514,0.05267244,0.03830723,8.07803631,0.56778592,0.70200926,0.11930962
1704716169624537,0.10055647,0.03830723,7.93917274,0.56245965,0.70094401,0.10333065
1704716169626494,0.13407530,0.00478840,7.87213516,0.55926383,0.56885123,0.12570120
1704716169628476,0.16759412,-0.01436521,7.80988598,0.52730590,0.51345748,0.12570120
1704716169630481,0.19632454,-0.02873042,7.68538761,0.49108690,0.52837116,0.08948221
1704716169632497,0.22505496,-0.06224924,7.62313843,0.48682585,0.45699844,0.09800433
1704716169634489,0.26336220,-0.07661445,7.56567717,0.46125951,0.37390780,0.12783173
1704716169636467,0.29209262,-0.10055647,7.47469759,0.40586576,0.32384038,0.11291803
1704716169638513,0.30645782,-0.13407530,7.43639040,0.38562572,0.30146983,0.12037488
1704716169640460,0.33997664,-0.13886370,7.38371801,0.37390780,0.23755397,0.13102752
1704716169642516,0.35434186,-0.16280572,7.31668043,0.33875409,0.16618125,0.13315806
1704716169644470,0.37828386,-0.18195933,7.29273844,0.30360037,0.11824435,0.12250541
1704716169646498,0.43574470,-0.20590134,7.43160200,0.18429075,-0.18535601,0.10546118
1704716169648507,0.45968673,-0.30645782,8.43237877,0.00745685,-0.52837116,0.08841695
1704716169650476,0.47405192,-0.33518824,8.78193188,-0.03302320,-0.64874601,0.07137272
1704716169652525,0.45010993,-0.38786069,9.41400146,-0.06178534,-0.70946610,0.10120012
1704716169654529,0.38307226,-0.46447513,10.40041256,-0.18642128,-0.75633776,0.12144014
1704716169656510,0.35913026,-0.47884035,10.70687008,-0.33662355,-0.72651035,0.14807175
1704716169658528,0.30166942,-0.52193600,11.20965195,-0.35579833,-0.58269966,0.21411815
1704716169660443,0.25857377,-0.53151280,11.53526402,-0.21624868,-0.48682585,0.22370553
1704716169662502,0.20590134,-0.50278234,11.70285797,-0.10865697,-0.42823631,0.18216021
1704716169664574,0.14365210,-0.46926352,11.85608673,-0.20666130,-0.34194988,0.13954964
1704716169666517,0.09576806,-0.47884035,11.99495029,-0.23329291,-0.23648870,0.13635385
1704716169668490,0.04309563,-0.47884035,12.03804588,-0.25459820,-0.21092236,0.12996227
1704716169670518,0.00478840,-0.44053310,11.99495029,-0.14913702,-0.22796659,0.06178534
1704716169672477,-0.03830723,-0.40222588,11.88960552,-0.10759171,-0.21198763,0.07989483
1704716169674528,-0.07182605,-0.37828386,11.80341434,-0.12144014,-0.13209279,0.06711166
1704716169676478,-0.08140286,-0.35913026,11.71243477,-0.18322548,-0.11291803,0.04687164
1704716169678518,-0.10534488,-0.35434186,11.55920601,-0.16831177,-0.16085494,0.05006743
1704716169680491,-0.10534488,-0.32561144,11.41555405,-0.13528858,-0.19813919,0.06604639
1704716169682487,-0.11013328,-0.29209262,11.26711273,-0.12783173,-0.20133498,0.06711166
1704716169684456,-0.12449849,-0.28251579,11.07078838,-0.15659387,-0.12250541,0.06604639
1704716169686479,-0.10055647,-0.25378537,10.82658005,-0.17576863,-0.04900216,0.08628642
1704716169688523,-0.10534488,-0.24420857,10.74038887,-0.17150757,-0.04687164,0.09480853
1704716169690444,-0.11013328,-0.22984336,10.56321812,-0.19387813,-0.05113269,0.06604639
1704716169692495,-0.10534488,-0.20590134,10.34774017,-0.19707392,0.02982740,0.07882957
1704716169694482,-0.11013328,-0.20111294,10.28549004,-0.19920444,0.11717909,0.09693906
1704716169696825,-0.09576806,-0.17717093,10.20408726,-0.21624868,0.20026971,0.09693906
1704716169698538,-0.05267244,-0.13407530,10.24239445,-0.21305288,0.26738137,0.05858954
1704716169700483,-0.04788403,-0.11971009,10.26154804,-0.18748654,0.28549087,0.05645901
1704716169702471,-0.01915361,-0.08619126,10.27591324,-0.14487596,0.28549087,0.04900216
1704716169704532,0.01915361,-0.07182605,10.29506683,-0.15446334,0.32810146,0.05752428
1704716169706658,0.03830723,-0.04309563,10.31900978,-0.17150757,0.38882151,0.06285060
1704716169708499,0.07661445,-0.02394202,10.28070164,-0.15339808,0.36751622,0.04154531
1704716169710450,0.09097967,-0.01915361,10.27112484,-0.13209279,0.36218992,0.04474111
1704716169712495,0.11971009,0.00000000,10.27112484,-0.10333065,0.34408042,0.04474111
1704716169714662,0.16280572,0.00957681,10.24718285,-0.10333065,0.30573088,0.05326322
1704716169716525,0.22026655,0.00957681,10.22324085,-0.11504856,0.28549087,0.04154531
1704716169718483,0.27772740,0.01436521,10.25675964,-0.11185277,0.26098979,0.01917476
1704716169720512,0.34476504,0.01915361,10.27591324,-0.09267800,0.22050974,0.01171791
1704716169722545,0.41659111,0.01915361,10.25675964,-0.07243798,0.17257284,0.01384844
1704716169724540,0.48841715,0.01915361,10.29985619,-0.07776430,0.15446334,0.02982740
1704716169726517,0.55066639,0.01915361,10.31900978,-0.09800433,0.19387813,0.02450108
1704716169728471,0.60333884,0.01436521,10.27591324,-0.08309063,0.24288028,0.02343582
1704716169730495,0.67037648,0.00957681,10.27591324,-0.04261058,0.26205504,0.04154531
1704716169732498,0.68474168,0.01436521,10.27591324,-0.04154531,0.26844662,0.04367584
1704716169734615,0.70868373,0.00000000,10.21366405,-0.05539375,0.30466563,0.03302320
1704716169736492,0.75177932,-0.00957681,10.18972206,-0.03195793,0.33449304,0.04793690
1704716169738556,0.76135612,-0.00957681,10.18493366,-0.02769688,0.33875409,0.05326322
1704716169740485,0.78050977,-0.01436521,10.13226128,-0.04048005,0.33875409,0.03302320
1704716169742537,0.81402856,-0.01915361,10.09874249,-0.02876214,0.31957933,0.02876214
1704716169744487,0.84275901,-0.03830723,10.13704967,-0.01278317,0.27377295,0.02556635
1704716169746639,0.85712421,-0.04309563,10.13704967,-0.01491370,0.25140241,0.03515373
1704716169748516,0.88585460,-0.05267244,10.10353088,-0.02130529,0.26525083,0.02343582
1704716169750486,0.90500826,-0.07661445,10.12747288,0.00319579,0.24607609,0.02556635
1704716169752498,0.90979666,-0.08140286,10.14183807,0.02556635,0.22690132,0.02450108
1704716169754484,0.90979666,-0.09097967,10.10353088,0.02663161,0.20985709,0.03195793
1704716169756532,0.90979666,-0.11971009,10.08437729,0.01917476,0.20772657,0.03834952
1704716169758526,0.89064306,-0.12449849,10.07001209,0.02663161,0.21624868,0.03728426
1704716169760444,0.87627780,-0.12928689,9.99339771,0.04793690,0.20026971,0.04261058
1704716169762510,0.86670101,-0.14844051,9.94551373,0.02450108,0.16085494,0.03941479
1704716169764648,0.83797061,-0.15801731,9.95509052,0.02024002,0.13315806,0.03515373
1704716169766459,0.80924016,-0.15801731,9.89762974,0.06711166,0.08628642,0.03515373
1704716169768513,0.78050977,-0.17238252,9.87368774,0.07243798,0.02024002,0.04793690
1704716169770519,0.73741412,-0.16280572,9.90241814,0.04154531,0.01278317,0.03728426
1704716169772422,0.69910687,-0.15801731,9.83538055,0.06817693,-0.00745685,0.03302320
1704716169774533,0.66079968,-0.16280572,9.81143856,0.13422331,-0.06924219,0.04900216
1704716169776503,0.60333884,-0.15801731,9.83538055,0.11930962,-0.09267800,0.05432849
1704716169778663,0.56024319,-0.14365210,9.75876617,0.08948221,-0.08415589,0.03621899
1704716169780506,0.51235914,-0.14844051,9.69651699,0.12676647,-0.12250541,0.03621899
1704716169782518,0.44532153,-0.14844051,9.69651699,0.14274544,-0.15126754,0.03941479
1704716169784515,0.38786069,-0.12928689,9.63426781,0.10652644,-0.15978967,0.03941479
1704716169786572,0.33039984,-0.13407530,9.59117222,0.08948221,-0.19174761,0.02876214
1704716169788517,0.25378537,-0.14844051,9.61990261,0.11398330,-0.26631612,0.04474111
1704716169790466,0.19153613,-0.13886370,9.57680702,0.09693906,-0.28336033,0.04261058
1704716169792482,0.12928689,-0.13407530,9.56244183,0.07563377,-0.30146983,0.03302320
1704716169794489,0.06224924,-0.14365210,9.61032581,0.08415589,-0.35899413,0.03941479
1704716169796518,0.00478840,-0.13407530,9.59596062,0.06711166,-0.40906155,0.03621899
1704716169798499,-0.02873042,-0.13407530,9.58159542,0.05432849,-0.44421527,0.02663161
1704716169800496,-0.08619126,-0.13886370,9.61511421,0.04900216,-0.45912898,0.04900216
1704716169802463,-0.13407530,-0.13407530,9.62469101,0.05006743,-0.51771849,0.05432849
1704716169804478,-0.19153613,-0.13407530,9.59596062,0.04048005,-0.54221958,0.05219796
1704716169806541,-0.22984336,-0.13407530,9.60553741,0.02663161,-0.54115433,0.05539375
1704716169808539,-0.27772740,-0.12449849,9.56723022,0.01597897,-0.59015650,0.05645901
1704716169810436,-0.29688102,-0.12928689,9.55286503,0.01171791,-0.60293967,0.06285060
1704716169812509,-0.34476504,-0.11971009,9.61032581,-0.02024002,-0.59441757,0.03408846
1704716169814588,-0.37828386,-0.11971009,9.64863300,-0.05219796,-0.53689325,0.02663161
1704716169816441,-0.48362875,-0.11013328,9.87847614,-0.05113269,-0.43036684,0.01704423
1704716169818497,-0.56024319,-0.07182605,10.08916569,-0.04261058,-0.32810146,-0.01704423
1704716169820530,-0.60812724,-0.05746084,10.18972206,-0.05006743,-0.25566345,-0.01704423
1704716169822617,-0.67516488,-0.04309563,10.37647057,-0.06924219,-0.22264026,0.00213053
1704716169824523,-0.73262572,-0.02873042,10.55364132,-0.10759171,-0.18748654,-0.00852212
1704716169826603,-0.75177932,-0.02394202,10.58716011,-0.11185277,-0.18429075,-0.00958738
1704716169828492,-0.73262572,-0.01915361,10.57758331,-0.13741912,-0.23861924,0.01065264
1704716169830480,-0.72304893,-0.01915361,10.56321812,-0.16511598,-0.29720879,0.03089267
1704716169832501,-0.71347213,-0.02394202,10.53448772,-0.19174761,-0.31638354,0.02024002
1704716169834533,-0.67516488,-0.02394202,10.44350815,-0.16511598,-0.28336033,0.01597897
1704716169836487,-0.63206923,-0.01915361,10.35731697,-0.17257284,-0.24074976,0.00213053
1704716169838529,-0.60333884,-0.01436521,10.35252857,-0.18961707,-0.19494340,0.00532632
1704716169840483,-0.56024319,0.00000000,10.30943298,-0.18961707,-0.15020229,-0.02343582
1704716169842482,-0.52193600,0.00957681,10.29506683,-0.19813919,-0.02024002,-0.02130529
1704716169844490,-0.48362875,0.01436521,10.34295177,-0.18961707,0.02769688,-0.00639159
1704716169846549,-0.43574470,0.02873042,10.30464458,-0.19174761,0.00213053,0.00319579
1704716169848492,-0.39264908,0.02394202,10.25197124,-0.21837921,0.07030746,-0.01171791
1704716169850477,-0.35434186,0.01915361,10.22802925,-0.22370553,0.11398330,-0.00319579
1704716169852480,-0.31124622,0.02873042,10.11789608,-0.21731395,0.08628642,0.01810949
1704716169854522,-0.26336220,0.01915361,10.00776291,-0.20666130,0.10439591,0.00745685
1704716169856533,-0.22026655,0.00957681,9.87368774,-0.21731395,0.16405073,0.00319579
1704716169858503,-0.20111294,0.01436521,9.80186176,-0.21198763,0.18002969,0.02024002
1704716169860511,-0.16759412,0.00478840,9.66299820,-0.19494340,0.21198763,0.02556635
1704716169862550,-0.12928689,-0.00478840,9.54807663,-0.17044231,0.27696875,0.01810949
1704716169864589,-0.11971009,0.00478840,9.50498104,-0.15659387,0.30999196,0.02343582
1704716169866697,-0.09097967,0.00000000,9.42357826,-0.12463594,0.37390780,0.03302320
1704716169868468,-0.04309563,0.00478840,9.43794346,-0.11185277,0.44634581,0.02556635
1704716169870624,-0.02394202,0.00957681,9.44752026,-0.07989483,0.47723848,0.02024002
1704716169872509,0.04788403,0.01436521,9.53849983,-0.01278317,0.50813115,0.02876214
1704716169874484,0.07661445,0.01915361,9.61990261,0.02982740,0.50173956,0.02876214
1704716169876517,0.13886370,0.02394202,9.76355457,0.08309063,0.49641323,0.02130529
1704716169878500,0.18674773,0.02394202,9.82101536,0.11930962,0.49002165,0.01597897
1704716169880474,0.24420857,0.01915361,9.92636013,0.14274544,0.49002165,0.01065264
1704716169882518,0.29209262,0.01915361,10.03170490,0.14274544,0.50280482,0.00532632
1704716169884532,0.33997664,0.01436521,10.04128170,0.14913702,0.48789111,0.00745685
1704716169886493,0.39264908,0.00000000,10.09874249,0.15872440,0.43995422,0.01597897
1704716169888582,0.44053310,-0.01436521,10.18014526,0.15659387,0.41971418,0.00639159
1704716169890518,0.49320555,-0.03351882,10.18493366,0.15233281,0.38988680,0.00426106
1704716169892457,0.55545479,-0.06224924,10.23760605,0.14168017,0.34408042,-0.00426106
1704716169894519,0.63206923,-0.11013328,10.34295177,0.13954964,0.28336033,-0.00319579
1704716169896545,0.65601128,-0.11971009,10.33816338,0.13315806,0.26951191,-0.00213053
1704716169898474,0.69910687,-0.15322891,10.36210537,0.12357067,0.25566345,-0.00319579
1704716169900472,0.74699092,-0.18674773,10.40520096,0.11504856,0.24927188,-0.01491370
1704716169902486,0.75177932,-0.19153613,10.37647057,0.11824435,0.25246766,-0.01491370
1704716169904774,0.77093297,-0.21068975,10.34774017,0.13209279,0.23861924,-0.00426106
1704716169906531,0.78050977,-0.22984336,10.33816338,0.15020229,0.23329291,0.01597897
1704716169908509,0.77572137,-0.22984336,10.29506683,0.15446334,0.23009712,0.01810949
1704716169910477,0.76614451,-0.23463176,10.22802925,0.15446334,0.22370553,0.02130529
1704716169912501,0.76135612,-0.24899697,10.20887566,0.15339808,0.21731395,0.02343582
1704716169914542,0.74220252,-0.24899697,10.13704967,0.15552860,0.18216021,0.01597897
1704716169916502,0.72304893,-0.25378537,10.07480049,0.15978967,0.11504856,0.01810949
1704716169918484,0.70389527,-0.25857377,10.07958889,0.13848437,0.07243798,0.02024002
1704716169920532,0.67995328,-0.25857377,10.03170490,0.15020229,0.04154531,0.01171791
1704716169922514,0.64164603,-0.26336220,9.98382092,0.17363811,-0.00958738,0.02663161
1704716169924514,0.60812724,-0.25378537,9.98860931,0.16937704,-0.03941479,0.03408846
1704716169926510,0.56503159,-0.25378537,9.95509052,0.14913702,-0.06072007,0.01704423
1704716169928548,0.51235914,-0.25857377,9.91678333,0.15446334,-0.09800433,0.02130529
1704716169930526,0.47405192,-0.24899697,9.89762974,0.15446334,-0.13954964,0.02663161
1704716169932503,0.42616791,-0.24899697,9.84495735,0.13635385,-0.16937704,0.02237055
1704716169934508,0.37828386,-0.24899697,9.79707336,0.11930962,-0.20346551,0.03621899
1704716169936524,0.34476504,-0.24899697,9.76355457,0.09693906,-0.25672874,0.02024002
1704716169938529,0.29688102,-0.25378537,9.70609379,0.07350325,-0.29401299,0.01810949
1704716169940498,0.26815060,-0.24420857,9.65342140,0.04048005,-0.33023196,0.03621899
1704716169942490,0.23463176,-0.24420857,9.61990261,0.01491370,-0.37710360,0.02876214
1704716169944506,0.18195933,-0.24420857,9.56244183,-0.01597897,-0.42184472,0.01810949
1704716169946601,0.17238252,-0.23942018,9.55286503,-0.02663161,-0.46658581,0.02556635
1704716169948558,0.12449849,-0.23942018,9.55765343,-0.05113269,-0.52411008,0.04154531
1704716169950488,0.10055647,-0.23463176,9.54807663,-0.08522116,-0.56991649,0.02343582
1704716169952496,0.07182605,-0.22026655,9.54328823,-0.09693906,-0.61891866,0.01810949
1704716169954569,0.02394202,-0.22026655,9.56244183,-0.12250541,-0.62211442,0.02769688
1704716169956516,0.00478840,-0.20111294,9.56723022,-0.14168017,-0.62104917,0.01597897
1704716169958505,-0.05267244,-0.18674773,9.62947941,-0.14807175,-0.56672066,0.02024002
1704716169960469,-0.12928689,-0.17717093,9.79228497,-0.14807175,-0.47617319,0.01597897
1704716169962524,-0.20590134,-0.12449849,9.95987892,-0.13954964,-0.35792884,0.00852212
1704716169964577,-0.32561144,-0.09576806,10.18014526,-0.14594123,-0.24927188,0.00639159
1704716169966540,-0.41659111,-0.05746084,10.40041256,-0.14807175,-0.21198763,0.00532632
1704716169968530,-0.48841715,-0.02873042,10.52012253,-0.17789917,-0.18002969,0.01278317
1704716169970525,-0.55545479,-0.01915361,10.64940929,-0.18216021,-0.21518342,-0.01384844
1704716169972521,-0.57460839,0.00000000,10.71644688,-0.21624868,-0.25353295,0.00319579
1704716169974529,-0.58897364,0.00478840,10.69729328,-0.23968449,-0.34514567,0.00532632
1704716169976478,-0.58418524,0.00478840,10.70687008,-0.25033715,-0.40266997,0.00532632
1704716169978479,-0.55545479,0.01436521,10.65419769,-0.26844662,-0.39840889,-0.00213053
1704716169980437,-0.53630120,0.00957681,10.58237171,-0.28442562,-0.43462789,0.00426106
1704716169982537,-0.48362875,0.01436521,10.53927612,-0.30253509,-0.43143210,-0.01917476
1704716169984494,-0.45489833,0.00957681,10.42914295,-0.28762141,-0.40906155,-0.02237055
1704716169986517,-0.44053310,0.01436521,10.37647057,-0.26738137,-0.28868666,-0.05432849
1704716169988599,-0.40701428,0.04309563,10.37647057,-0.24181503,-0.21624868,-0.03941479
1704716169990475,-0.40222588,0.05746084,10.34295177,-0.21944447,-0.13848437,-0.01171791
1704716169992493,-0.39264908,0.08619126,10.35252857,-0.22050974,-0.06391586,-0.03302320
1704716169994475,-0.37349546,0.11013328,10.34295177,-0.18535601,-0.01278317,-0.02982740
1704716169996538,-0.36870706,0.11971009,10.28549004,-0.17044231,0.03621899,0.02024002
1704716169998514,-0.34476504,0.13407530,10.25675964,-0.17576863,0.04793690,0.03089267
1704716170000478,-0.32561144,0.13407530,10.19451046,-0.17683390,0.06285060,0.00426106
1704716170002480,-0.30166942,0.13407530,10.10353088,-0.15126754,0.08415589,0.02343582
1704716170004631,-0.27772740,0.13407530,10.02691650,-0.12889700,0.12037488,0.03834952
1704716170006551,-0.25378537,0.12928689,9.94551373,-0.12144014,0.14061491,0.03408846
1704716170008639,-0.22505496,0.12449849,9.84495735,-0.12357067,0.14168017,0.02130529
1704716170010483,-0.20590134,0.11013328,9.75876617,-0.11611383,0.18002969,0.03834952
1704716170012470,-0.17717093,0.10534488,9.66778660,-0.08628642,0.22477080,0.03941479
1704716170014550,-0.15322891,0.10055647,9.55765343,-0.06285060,0.21944447,0.03834952
1704716170016521,-0.13407530,0.08619126,9.47146225,-0.05752428,0.27270770,0.02982740
1704716170018463,-0.11492168,0.08619126,9.40442467,-0.05752428,0.29933929,0.04474111
1704716170020529,-0.09576806,0.07661445,9.25598335,-0.02237055,0.34088463,0.03728426
1704716170022518,-0.08619126,0.06703765,9.22725296,-0.00106526,0.36751622,0.03941479
1704716170024600,-0.07182605,0.07182605,9.16500378,0.00000000,0.38669100,0.05326322
1704716170026586,-0.06224924,0.05267244,9.05487061,0.00958738,0.41225734,0.04580637
1704716170028505,-0.05746084,0.04309563,9.03571701,0.03515373,0.42504051,0.03728426
1704716170030536,-0.04309563,0.04788403,8.99262142,0.07137272,0.46978161,0.05006743
1704716170032519,-0.02873042,0.04309563,8.97825623,0.11930962,0.47936898,0.05326322
1704716170034524,0.03351882,0.02394202,9.13148499,0.15765914,0.42823631,0.04474111
1704716170036515,0.11971009,0.00957681,9.36611748,0.20453078,0.39840889,0.02450108
1704716170038535,0.20111294,-0.02394202,9.58638382,0.26631612,0.36964676,0.00745685
1704716170040496,0.28730419,-0.05267244,9.83059216,0.32810146,0.33981934,0.00426106
1704716170042509,0.36391866,-0.06703765,10.05085850,0.33023196,0.34727621,0.01384844
1704716170044517,0.42137951,-0.10055647,10.19451046,0.30679616,0.35899413,0.01917476
1704716170046566,0.45968673,-0.12449849,10.31900978,0.32064459,0.36858150,0.02769688
1704716170048580,0.49320555,-0.12928689,10.39562416,0.34834146,0.38988680,0.02663161
1704716170050480,0.51235914,-0.14365210,10.40520096,0.35792884,0.39840889,0.01171791
1704716170052512,0.52193600,-0.15801731,10.43393135,0.33342776,0.39947417,0.02237055
1704716170054540,0.53151280,-0.16759412,10.44350815,0.31531829,0.38349521,0.00852212
1704716170056524,0.52672440,-0.18195933,10.40520096,0.31638354,0.35686359,0.01810949
1704716170058522,0.52193600,-0.19153613,10.38125896,0.32490566,0.34088463,0.00639159
1704716170060479,0.51714754,-0.19153613,10.33337498,0.32810146,0.30679616,0.01278317
1704716170062484,0.49799395,-0.21068975,10.26633644,0.31212249,0.27590349,0.00319579
1704716170064572,0.49799395,-0.21068975,10.23281765,0.27909929,0.24501082,-0.00319579
1704716170066568,0.49320555,-0.22984336,10.19929886,0.25885925,0.17789917,-0.00958738
1704716170068690,0.47405192,-0.25378537,10.17056847,0.24288028,0.10759171,-0.01491370
1704716170070537,0.48362875,-0.28251579,10.16099167,0.20879182,0.04687164,-0.02130529
1704716170072519,0.47405192,-0.30166942,10.16099167,0.18322548,0.03302320,-0.02237055
1704716170074525,0.46926352,-0.32082301,10.16578007,0.14168017,-0.00745685,-0.02237055
1704716170076472,0.46447513,-0.33518824,10.18014526,0.11930962,-0.07030746,-0.02982740
1704716170078518,0.43574470,-0.36870706,10.17535686,0.11398330,-0.08628642,-0.02982740
1704716170080537,0.43095630,-0.36870706,10.16099167,0.12783173,-0.12357067,-0.01384844
1704716170082529,0.40701428,-0.37828386,10.13226128,0.10120012,-0.14594123,-0.00639159
1704716170084515,0.40222588,-0.38786069,10.10831928,0.04474111,-0.17789917,-0.01704423
1704716170086524,0.39264908,-0.37349546,10.07480049,0.02876214,-0.22370553,-0.01810949
1704716170088523,0.36870706,-0.38307226,10.02212811,0.04474111,-0.24501082,-0.01597897
1704716170090489,0.37828386,-0.36870706,9.96945572,0.04474111,-0.30679616,-0.00106526
1704716170092530,0.35434186,-0.35913026,9.91678333,0.01704423,-0.31744879,0.00426106
1704716170094866,0.34955344,-0.35434186,9.86411095,-0.01917476,-0.33768883,0.00532632
1704716170096532,0.35434186,-0.33997664,9.80665016,-0.02024002,-0.36112463,0.02130529
1704716170098535,0.32082301,-0.33997664,9.75397778,-0.02982740,-0.36858150,0.03089267
1704716170100478,0.33039984,-0.32561144,9.70130539,-0.05858954,-0.40906155,0.03195793
1704716170102498,0.29688102,-0.32082301,9.64384460,-0.10013486,-0.42397526,0.03621899
1704716170104544,0.29688102,-0.31603462,9.63905621,-0.11611383,-0.40906155,0.03515373
1704716170106637,0.29209262,-0.28730419,9.64384460,-0.14168017,-0.37497309,0.00958738
1704716170108528,0.17717093,-0.25857377,9.85932255,-0.16298546,-0.31318775,-0.01278317
1704716170110482,0.14844051,-0.23942018,9.94551373,-0.16831177,-0.26525083,-0.01704423
1704716170112578,0.06703765,-0.19632454,10.07958889,-0.16937704,-0.20666130,0.00213053
1704716170114540,-0.01915361,-0.17238252,10.26633644,-0.17896442,-0.17896442,-0.01065264
1704716170116540,-0.06703765,-0.12928689,10.40998936,-0.22370553,-0.15765914,0.00000000
1704716170118517,-0.13407530,-0.11013328,10.49618053,-0.25140241,-0.18748654,-0.01278317
1704716170120537,-0.16280572,-0.09576806,10.58716011,-0.26098979,-0.24181503,0.00000000
1704716170122517,-0.17238252,-0.07661445,10.59673691,-0.25246766,-0.29614350,-0.00426106
1704716170124525,-0.19632454,-0.07182605,10.60152531,-0.27270770,-0.33768883,0.00000000
1704716170126505,-0.17717093,-0.05267244,10.63504410,-0.29507825,-0.33981934,-0.02663161
1704716170128479,-0.17717093,-0.05746084,10.59194851,-0.31531829,-0.36005938,-0.02663161
1704716170130524,-0.16759412,-0.04788403,10.56321812,-0.30146983,-0.37177730,-0.02130529
1704716170132522,-0.14365210,-0.04309563,10.53448772,-0.28868666,-0.38349521,0.00745685
1704716170134541,-0.15322891,-0.05746084,10.46745014,-0.30253509,-0.31531829,-0.00958738
1704716170136494,-0.12449849,-0.03830723,10.44350815,-0.31425300,-0.28336033,-0.01597897
1704716170138619,-0.11492168,-0.05746084,10.38125896,-0.33236250,-0.26312032,0.00319579
1704716170140492,-0.11492168,-0.07182605,10.30943298,-0.34727621,-0.20879182,-0.02556635
1704716170142504,-0.09097967,-0.05746084,10.27112484,-0.31531829,-0.17896442,-0.01278317
1704716170144499,-0.09097967,-0.07661445,10.20408726,-0.28868666,-0.14168017,0.00106526
1704716170146564,-0.07661445,-0.07661445,10.14662647,-0.29507825,-0.06285060,-0.02130529
1704716170148530,-0.06703765,-0.06703765,10.10353088,-0.27696875,-0.03302320,-0.01278317
1704716170150514,-0.07661445,-0.08140286,10.04128170,-0.24394555,0.00000000,-0.00213053
1704716170152482,-0.06224924,-0.06224924,9.99339771,-0.20346551,0.05752428,0.00532632
1704716170154547,-0.06224924,-0.06224924,9.97424412,-0.18429075,0.07669904,-0.00852212
1704716170156550,-0.06703765,-0.05746084,9.93114853,-0.16405073,0.12250541,0.01491370
1704716170158534,-0.05746084,-0.03830723,9.91678333,-0.12570120,0.17257284,0.01491370
1704716170160482,-0.06224924,-0.03830723,9.89284134,-0.08309063,0.21518342,0.00319579
1704716170162496,-0.06703765,-0.01915361,9.85932255,-0.03941479,0.24074976,0.02237055
1704716170164535,-0.06224924,-0.00478840,9.85453415,-0.01491370,0.26844662,0.02237055
1704716170166527,-0.06224924,0.00478840,9.83059216,0.01491370,0.30679616,0.00213053
1704716170168515,-0.05746084,0.01915361,9.80186176,0.06604639,0.33662355,0.00000000
1704716170170521,-0.05746084,0.02394202,9.80186176,0.10333065,0.36538571,0.00639159
1704716170172532,-0.04788403,0.04309563,9.77313137,0.12889700,0.36645097,-0.00106526
1704716170174548,-0.04788403,0.04788403,9.75876617,0.15765914,0.36645097,-0.00319579
1704716170176482,-0.03830723,0.04788403,9.75876617,0.17470337,0.38988680,0.00000000
1704716170178523,-0.02394202,0.05746084,9.72524738,0.19600865,0.40906155,-0.00639159
1704716170180534,-0.02394202,0.05746084,9.72045898,0.22264026,0.41758364,-0.00213053
1704716170182540,-0.00478840,0.06224924,9.72045898,0.24607609,0.39734364,0.00106526
1704716170184522,0.00478840,0.06224924,9.68694019,0.26844662,0.40160468,-0.00852212
1704716170186512,0.00478840,0.05267244,9.69172859,0.28336033,0.41119206,-0.00213053
1704716170188475,0.03351882,0.05267244,9.68694019,0.29401299,0.39201730,-0.00532632
1704716170190487,0.03830723,0.03830723,9.66778660,0.28442562,0.37816888,-0.00639159
1704716170192514,0.04788403,0.03830723,9.67257500,0.28868666,0.37390780,-0.00319579
1704716170194684,0.07182605,0.03351882,9.65820980,0.30253509,0.35686359,-0.01171791
1704716170196551,0.08140286,0.00957681,9.65820980,0.30892667,0.33555830,0.00000000
1704716170198601,0.10055647,0.00957681,9.66778660,0.29933929,0.32597092,0.00000000
1704716170200489,0.11971009,-0.00957681,9.66299820,0.27057716,0.29507825,-0.00958738
1704716170202518,0.11971009,-0.03351882,9.68215179,0.25992453,0.26951191,-0.02343582
1704716170204528,0.16280572,-0.03830723,9.70609379,0.26631612,0.23968449,-0.01278317
1704716170206535,0.16759412,-0.06224924,9.70609379,0.27164242,0.20666130,0.00639159
1704716170208512,0.19153613,-0.06703765,9.73003578,0.25566345,0.18855180,0.00106526
1704716170210476,0.21547815,-0.07661445,9.73961258,0.24394555,0.15872440,0.00426106
1704716170212525,0.22026655,-0.09576806,9.74918938,0.23329291,0.13741912,-0.00106526
1704716170214528,0.24899697,-0.09097967,9.78270817,0.22157501,0.08628642,0.00745685
1704716170216535,0.25378537,-0.11492168,9.78749657,0.20772657,0.04580637,0.00106526
1704716170218507,0.27293900,-0.12449849,9.80186176,0.18961707,0.02982740,0.00852212
1704716170220543,0.28730419,-0.12928689,9.83059216,0.17150757,0.01384844,0.01278317
1704716170222555,0.29209262,-0.15801731,9.84016895,0.14700650,-0.00852212,0.02450108
1704716170224548,0.31603462,-0.15322891,9.86889935,0.13954964,-0.04900216,0.02130529
1704716170226576,0.30645782,-0.17717093,9.88805294,0.12463594,-0.07776430,0.02663161
1704716170228530,0.32561144,-0.19632454,9.90720654,0.10759171,-0.10333065,0.01917476
1704716170230513,0.32561144,-0.19153613,9.93593693,0.07563377,-0.11930962,0.02237055
1704716170232427,0.31603462,-0.22505496,9.94551373,0.04687164,-0.13635385,0.02556635
1704716170234514,0.33518824,-0.22505496,9.96945572,0.03408846,-0.16405073,0.03302320
1704716170236496,0.31124622,-0.23942018,9.98860931,0.02237055,-0.17363811,0.01597897
1704716170238741,0.32561144,-0.25857377,9.99339771,-0.00426106,-0.18322548,0.00958738
1704716170240480,0.31124622,-0.25857377,10.03170490,-0.03834952,-0.20240024,0.01171791
1704716170242539,0.30166942,-0.27293900,10.04128170,-0.03728426,-0.21624868,0.01065264
1704716170244510,0.32082301,-0.26815060,10.04607010,-0.02982740,-0.22157501,-0.00639159
1704716170246549,0.29688102,-0.26336220,10.06522369,-0.04580637,-0.23648870,-0.00639159
1704716170248544,0.29209262,-0.27293900,10.08916569,-0.08522116,-0.25992453,0.00213053
1704716170250500,0.30166942,-0.26336220,10.10353088,-0.10439591,-0.27270770,0.00106526
1704716170252480,0.27293900,-0.27293900,10.12747288,-0.10865697,-0.27803403,-0.00426106
1704716170254533,0.28251579,-0.27293900,10.14662647,-0.12889700,-0.28442562,-0.00532632
1704716170256534,0.26336220,-0.27293900,10.15620327,-0.15552860,-0.29294771,-0.01917476
1704716170258503,0.25857377,-0.27772740,10.19929886,-0.16298546,-0.29614350,-0.01810949
1704716170260487,0.25378537,-0.27293900,10.19929886,-0.15978967,-0.27803403,-0.02982740
1704716170262551,0.22505496,-0.27293900,10.22802925,-0.16511598,-0.26631612,-0.02237055
1704716170264538,0.22984336,-0.26336220,10.26154804,-0.17789917,-0.26951191,-0.01917476
1704716170266567,0.21068975,-0.25857377,10.26154804,-0.18109496,-0.26098979,-0.01491370
1704716170268506,0.19632454,-0.25378537,10.30464458,-0.18748654,-0.24074976,-0.02024002
1704716170270542,0.19632454,-0.24420857,10.31422138,-0.19920444,-0.22157501,-0.01597897
1704716170272543,0.16759412,-0.24420857,10.32379818,-0.20772657,-0.21198763,-0.02343582
1704716170274523,0.17238252,-0.23463176,10.37647057,-0.21518342,-0.19281286,-0.01491370
1704716170276584,0.14844051,-0.23463176,10.38125896,-0.22157501,-0.17576863,-0.01491370
1704716170278494,0.13886370,-0.22505496,10.44829655,-0.23222765,-0.13209279,-0.02876214
1704716170280545,0.13886370,-0.22505496,10.45787334,-0.23755397,-0.12570120,-0.02450108
1704716170282785,0.11013328,-0.22984336,10.46266174,-0.23755397,-0.10759171,-0.01065264
1704716170284515,0.11013328,-0.21068975,10.53448772,-0.22690132,-0.08309063,0.00106526
1704716170286518,0.09576806,-0.21068975,10.54406452,-0.22583605,-0.06178534,0.01704423
1704716170288552,0.08140286,-0.20111294,10.56800652,-0.22264026,-0.04793690,0.02130529
1704716170290480,0.08619126,-0.17717093,10.60631371,-0.19707392,-0.04793690,0.01704423
1704716170292547,0.06224924,-0.17238252,10.61110210,-0.17257284,-0.03195793,0.01704423
1704716170294497,0.05746084,-0.15801731,10.64940929,-0.14913702,-0.00852212,0.01810949
1704716170296517,0.05267244,-0.13886370,10.67813969,-0.16192019,0.00426106,0.02130529
1704716170298559,0.03351882,-0.13407530,10.69250488,-0.15872440,0.01704423,0.02237055
1704716170300501,0.03830723,-0.11492168,10.72602367,-0.12463594,0.03621899,0.02343582
1704716170302476,0.01915361,-0.10534488,10.72602367,-0.08735169,0.06604639,0.02982740
1704716170304537,0.01436521,-0.10055647,10.74996567,-0.08735169,0.08202536,0.02130529
1704716170306541,0.01915361,-0.08140286,10.77869606,-0.09906960,0.08096009,0.02130529
1704716170308513,0.00000000,-0.08140286,10.78348446,-0.06604639,0.10972223,0.01384844
1704716170310482,0.00478840,-0.07661445,10.80742645,-0.04154531,0.12889700,0.01278317
1704716170312498,0.00478840,-0.05746084,10.80742645,-0.02343582,0.13741912,0.01704423
1704716170314521,0.00000000,-0.06224924,10.81700325,-0.02556635,0.13528858,0.01278317
1704716170316517,0.01436521,-0.05267244,10.83615685,0.00000000,0.15446334,0.00532632
1704716170318533,0.00478840,-0.04788403,10.82179165,0.02769688,0.17044231,-0.00106526
1704716170320498,0.01436521,-0.05267244,10.83136845,0.02982740,0.18322548,0.01278317
1704716170322619,0.03351882,-0.03351882,10.83615685,0.01065264,0.18109496,-0.00639159
1704716170324540,0.01915361,-0.04788403,10.82658005,0.01810949,0.17789917,-0.00319579
1704716170326691,0.03830723,-0.05267244,10.83136845,0.04687164,0.19813919,-0.00958738
1704716170328514,0.03830723,-0.04309563,10.81700325,0.03834952,0.19813919,0.00745685
1704716170330517,0.04788403,-0.05267244,10.82179165,0.03302320,0.18535601,0.00000000
1704716170332538,0.07182605,-0.04788403,10.82179165,0.04048005,0.17150757,-0.00213053
1704716170334506,0.06703765,-0.05267244,10.80742645,0.06391586,0.17363811,0.00426106
1704716170336526,0.08140286,-0.06703765,10.80263805,0.07350325,0.16298546,0.02450108
1704716170338554,0.10055647,-0.04788403,10.80263805,0.07456851,0.12783173,0.02556635
1704716170340490,0.09576806,-0.06703765,10.79784966,0.07776430,0.12676647,0.02343582
1704716170342509,0.12449849,-0.06703765,10.79306126,0.09906960,0.13741912,0.01171791
1704716170344523,0.12449849,-0.05267244,10.77869606,0.12037488,0.12463594,0.02450108
1704716170346647,0.12928689,-0.07182605,10.76433086,0.13209279,0.10013486,0.01810949
1704716170348555,0.14844051,-0.05746084,10.75954247,0.13954964,0.08628642,0.01491370
1704716170350511,0.13886370,-0.06703765,10.74996567,0.12783173,0.09906960,0.00852212
1704716170352527,0.16280572,-0.07182605,10.74038887,0.12783173,0.09800433,0.00852212
1704716170354555,0.16759412,-0.05267244,10.72602367,0.14168017,0.07563377,0.01384844
1704716170356574,0.16280572,-0.07661445,10.71165848,0.15765914,0.05752428,0.00639159
1704716170358616,0.18674773,-0.06703765,10.69729328,0.16511598,0.06498113,-0.00213053
1704716170360491,0.17238252,-0.06703765,10.69250488,0.15659387,0.05965481,0.00958738
1704716170362521,0.19153613,-0.08140286,10.67813969,0.15659387,0.03195793,-0.00106526
1704716170364543,0.20590134,-0.06224924,10.65898609,0.16405073,0.01810949,-0.01278317
1704716170366554,0.19632454,-0.08140286,10.65419769,0.15552860,0.02237055,-0.00852212
1704716170368507,0.22026655,-0.08140286,10.63983250,0.14487596,0.00958738,-0.00106526
1704716170370571,0.21068975,-0.08140286,10.63504410,0.12996227,-0.02237055,-0.00958738
1704716170372530,0.22505496,-0.10055647,10.63504410,0.13102752,-0.03408846,-0.01597897
1704716170374570,0.23942018,-0.09576806,10.61589050,0.13102752,-0.03408846,-0.01384844
1704716170376574,0.22505496,-0.11013328,10.62067890,0.12463594,-0.04154531,0.00000000
1704716170378524,0.24899697,-0.11971009,10.61589050,0.11185277,-0.07137272,0.00319579
1704716170380547,0.22984336,-0.11971009,10.60631371,0.10333065,-0.08202536,0.00319579
1704716170382521,0.23463176,-0.13886370,10.62067890,0.08841695,-0.07669904,0.00106526
1704716170384534,0.24899697,-0.13886370,10.59673691,0.07989483,-0.08841695,0.00106526
1704716170386492,0.22984336,-0.14365210,10.59673691,0.05858954,-0.11717909,0.00745685
1704716170388544,0.24899697,-0.15322891,10.61110210,0.03515373,-0.14274544,0.00532632
1704716170390527,0.23463176,-0.15801731,10.58716011,0.00426106,-0.14381070,0.00000000
1704716170392522,0.23942018,-0.16759412,10.59673691,-0.00958738,-0.14274544,0.00213053
1704716170394527,0.25378537,-0.17717093,10.58716011,-0.03302320,-0.15126754,-0.00426106
1704716170396536,0.22984336,-0.18195933,10.56800652,-0.05539375,-0.15978967,-0.01384844
1704716170398538,0.24899697,-0.18195933,10.59673691,-0.06604639,-0.16831177,-0.01810949
1704716170400506,0.23463176,-0.19632454,10.56321812,-0.06711166,-0.16085494,-0.02450108
1704716170402509,0.22984336,-0.18674773,10.55842972,-0.06924219,-0.15659387,-0.03408846
1704716170404540,0.23942018,-0.19153613,10.56321812,-0.08096009,-0.15233281,-0.02556635
1704716170406550,0.20590134,-0.19632454,10.52969933,-0.08309063,-0.14061491,-0.01278317
1704716170408509,0.21547815,-0.17717093,10.54406452,-0.06711166,-0.14487596,-0.01065264
1704716170410465,0.20111294,-0.19632454,10.52012253,-0.06285060,-0.13741912,-0.00319579
1704716170412531,0.18195933,-0.18195933,10.49139214,-0.07030746,-0.13528858,0.00213053
1704716170414702,0.19153613,-0.17717093,10.51054573,-0.08202536,-0.11930962,0.00852212
1704716170416550,0.16280572,-0.19153613,10.47702694,-0.08202536,-0.11291803,0.00958738
1704716170418524,0.16759412,-0.16280572,10.47702694,-0.07563377,-0.10972223,0.02024002
1704716170420544,0.15801731,-0.17238252,10.48181534,-0.07669904,-0.10972223,0.01917476
1704716170422585,0.13886370,-0.17238252,10.45308495,-0.08628642,-0.09374327,0.01917476
1704716170424594,0.14844051,-0.14365210,10.46745014,-0.09800433,-0.07350325,0.01171791
1704716170426601,0.12449849,-0.16759412,10.46266174,-0.10013486,-0.06817693,0.01491370
1704716170428522,0.12928689,-0.13886370,10.43871975,-0.09906960,-0.05858954,0.01491370
1704716170430509,0.12449849,-0.13407530,10.44829655,-0.10439591,-0.04687164,0.01704423
1704716170432530,0.10534488,-0.14844051,10.42914295,-0.10226539,-0.02982740,0.00958738
1704716170434496,0.11492168,-0.11492168,10.42435455,-0.10120012,-0.01597897,0.01171791
1704716170436535,0.09576806,-0.12928689,10.43393135,-0.10120012,-0.01171791,0.01171791
1704716170438589,0.09097967,-0.12449849,10.40998936,-0.09054748,-0.01704423,0.01704423
1704716170440494,0.09097967,-0.10055647,10.40520096,-0.07669904,-0.02024002,0.01704423
1704716170442526,0.07182605,-0.12449849,10.40998936,-0.06604639,-0.00639159,0.02982740
1704716170444515,0.08619126,-0.09576806,10.39083576,-0.07776430,0.00319579,0.02769688
1704716170446534,0.07182605,-0.09576806,10.39083576,-0.07669904,0.00639159,0.02343582
1704716170448573,0.06703765,-0.11013328,10.38604736,-0.06178534,0.01278317,0.02237055
1704716170450512,0.07661445,-0.08140286,10.37168217,-0.05113269,0.01384844,0.02876214
1704716170452483,0.05746084,-0.10055647,10.38125896,-0.04474111,0.03834952,0.02876214
1704716170454554,0.07182605,-0.09097967,10.37168217,-0.03302320,0.04580637,0.02024002
1704716170456544,0.07182605,-0.07182605,10.35252857,-0.02130529,0.04580637,0.01384844
1704716170458548,0.05746084,-0.09097967,10.35731697,-0.01065264,0.03941479,0.01171791
1704716170460482,0.07661445,-0.06224924,10.32379818,-0.00106526,0.04261058,0.01384844
1704716170462533,0.06224924,-0.07661445,10.33337498,0.00106526,0.03941479,0.01065264
1704716170464770,0.07182605,-0.08140286,10.33816338,-0.00532632,0.04687164,0.00745685
1704716170466533,0.07182605,-0.06224924,10.29506683,0.00639159,0.04367584,0.00745685
1704716170468526,0.06703765,-0.07661445,10.30943298,0.01810949,0.04367584,0.00852212
1704716170470546,0.09097967,-0.06703765,10.30464458,0.02556635,0.04900216,0.00745685
1704716170472533,0.08140286,-0.05267244,10.28549004,0.02237055,0.04900216,0.00639159
1704716170474553,0.07661445,-0.07182605,10.31900978,0.02663161,0.04474111,0.00213053
1704716170476488,0.10534488,-0.05267244,10.29027843,0.03621899,0.04474111,0.00213053
1704716170478525,0.07661445,-0.05746084,10.29027843,0.03834952,0.05006743,0.00000000
1704716170480535,0.09576806,-0.06224924,10.31900978,0.04154531,0.04900216,0.00426106
1704716170482547,0.09576806,-0.04788403,10.29027843,0.04367584,0.04687164,0.00532632
1704716170484506,0.07661445,-0.06224924,10.30464458,0.05006743,0.05539375,0.00426106
1704716170486505,0.11013328,-0.05267244,10.30943298,0.05219796,0.05326322,0.00000000
1704716170488565,0.09097967,-0.05267244,10.27591324,0.06498113,0.04793690,0.00426106
1704716170490547,0.09097967,-0.05746084,10.30943298,0.07350325,0.04687164,0.00106526
1704716170492542,0.11013328,-0.04788403,10.29985619,0.08628642,0.04900216,0.00106526
1704716170494511,0.07661445,-0.05746084,10.29027843,0.10333065,0.04580637,0.00639159
1704716170496524,0.10055647,-0.05267244,10.31422138,0.10759171,0.04154531,0.00639159
1704716170498533,0.09097967,-0.04788403,10.28070164,0.11930962,0.05113269,0.00213053
1704716170500521,0.07661445,-0.05746084,10.29506683,0.12144014,0.05432849,0.00852212
1704716170502534,0.11013328,-0.05267244,10.30464458,0.12889700,0.05113269,0.00958738
1704716170504528,0.08619126,-0.06224924,10.27112484,0.12463594,0.05858954,-0.00426106
1704716170506537,0.10055647,-0.06224924,10.29506683,0.12037488,0.06072007,-0.00213053
1704716170508559,0.11492168,-0.06224924,10.28070164,0.11504856,0.06711166,0.00213053
1704716170510580,0.09097967,-0.07661445,10.26154804,0.11824435,0.06604639,-0.01065264
1704716170512503,0.12449849,-0.07182605,10.29027843,0.10865697,0.06498113,-0.00958738
1704716170514603,0.11013328,-0.08619126,10.26633644,0.08628642,0.04580637,-0.00639159
1704716170516545,0.11492168,-0.09097967,10.27112484,0.07243798,0.05752428,-0.01278317
1704716170518524,0.13886370,-0.09097967,10.28070164,0.07669904,0.05113269,-0.02450108
1704716170520549,0.11971009,-0.11013328,10.24718285,0.07669904,0.04687164,-0.01065264
1704716170522561,0.13886370,-0.10534488,10.26633644,0.05432849,0.03408846,-0.01065264
1704716170524530,0.13407530,-0.12449849,10.27112484,0.04048005,0.02450108,-0.00213053
1704716170526535,0.13407530,-0.13407530,10.25197124,0.02769688,0.02769688,-0.01278317
1704716170528556,0.14844051,-0.12928689,10.27112484,0.02024002,0.02343582,-0.01384844
1704716170530531,0.13886370,-0.15801731,10.26154804,0.01597897,0.02130529,-0.01171791
1704716170532538,0.15322891,-0.15322891,10.26154804,0.01810949,0.01704423,-0.01278317
1704716170534514,0.15322891,-0.16280572,10.28070164,0.00639159,0.03089267,-0.01597897
1704716170536527,0.15322891,-0.18195933,10.26633644,-0.01384844,0.02663161,-0.01384844
1704716170538562,0.16280572,-0.16759412,10.27112484,-0.01171791,0.01597897,-0.00532632
1704716170540437,0.15801731,-0.19153613,10.28070164,-0.02024002,0.02130529,0.00213053
1704716170542535,0.16759412,-0.18195933,10.27112484,-0.02982740,0.02982740,0.00106526
1704716170544499,0.16280572,-0.17717093,10.28549004,-0.03515373,0.02769688,0.00213053
1704716170546751,0.16759412,-0.19153613,10.29027843,-0.03728426,0.02024002,-0.00106526
1704716170548562,0.17717093,-0.17238252,10.28070164,-0.03089267,0.02343582,-0.00213053
1704716170550517,0.16280572,-0.17717093,10.29985619,-0.03941479,0.03089267,0.00319579
1704716170552504,0.18674773,-0.17238252,10.29506683,-0.04261058,0.02982740,0.00532632
1704716170554564,0.17238252,-0.15801731,10.28070164,-0.04367584,0.03408846,0.00426106
1704716170556543,0.17238252,-0.16280572,10.30943298,-0.02982740,0.03515373,0.00319579
1704716170558567,0.19153613,-0.15322891,10.29027843,-0.03408846,0.02876214,-0.00106526
1704716170560467,0.16759412,-0.14365210,10.29506683,-0.04154531,0.03195793,0.00532632
1704716170562521,0.19153613,-0.14365210,10.31422138,-0.04687164,0.03195793,0.00426106
1704716170564582,0.17717093,-0.12928689,10.29506683,-0.04154531,0.02663161,0.00213053
1704716170566499,0.16759412,-0.12449849,10.31422138,-0.04261058,0.02982740,0.00106526
1704716170568540,0.19632454,-0.11971009,10.32379818,-0.06072007,0.03621899,-0.00106526
1704716170570510,0.16759412,-0.11492168,10.30464458,-0.06285060,0.03195793,0.00319579
1704716170572629,0.18674773,-0.10534488,10.34295177,-0.05645901,0.03408846,0.00426106
1704716170574553,0.18674773,-0.10534488,10.32858658,-0.05858954,0.04367584,0.00745685
1704716170576495,0.17238252,-0.09576806,10.33337498,-0.07669904,0.04261058,-0.00319579
1704716170578522,0.20590134,-0.09097967,10.36689377,-0.07882957,0.02982740,0.00745685
1704716170580524,0.18195933,-0.10055647,10.33816338,-0.07030746,0.03941479,0.00852212
1704716170582517,0.19153613,-0.08140286,10.36689377,-0.05539375,0.04154531,0.00532632
1704716170584609,0.20111294,-0.08619126,10.37647057,-0.05432849,0.03408846,0.00319579
1704716170586545,0.17717093,-0.08140286,10.35731697,-0.05645901,0.02876214,0.00852212
1704716170588585,0.20590134,-0.06703765,10.39562416,-0.04687164,0.02663161,-0.00426106
1704716170590499,0.19153613,-0.08619126,10.36689377,-0.03515373,0.02556635,0.00106526
1704716170592512,0.19632454,-0.06703765,10.36689377,-0.02663161,0.02769688,0.00106526
1704716170594490,0.22026655,-0.06703765,10.39083576,-0.02343582,0.02024002,0.00106526
1704716170596573,0.19632454,-0.08140286,10.36210537,-0.01704423,0.01810949,-0.00852212
1704716170598526,0.22505496,-0.05746084,10.38604736,-0.01278317,0.01491370,-0.00213053
1704716170600520,0.22026655,-0.08140286,10.38604736,-0.01597897,0.00852212,-0.00639159
1704716170602497,0.22026655,-0.07661445,10.37168217,-0.01384844,-0.00639159,-0.01171791
1704716170604565,0.23942018,-0.06703765,10.40520096,-0.01171791,-0.01491370,-0.01171791
1704716170606555,0.22026655,-0.09576806,10.39083576,-0.00745685,-0.00532632,-0.00532632
1704716170608539,0.23942018,-0.07182605,10.39083576,-0.00106526,-0.01065264,-0.00639159
1704716170610471,0.23463176,-0.09097967,10.40041256,0.00000000,-0.01171791,-0.00426106
1704716170612513,0.22984336,-0.11013328,10.39083576,-0.00639159,-0.01278317,-0.00745685
1704716170614797,0.24899697,-0.08140286,10.40998936,0.00639159,-0.02450108,-0.00639159
1704716170616495,0.23463176,-0.11971009,10.40998936,0.00852212,-0.02982740,-0.00532632
1704716170619450,0.25378537,-0.09576806,10.39562416,0.00852212,-0.03621899,-0.00213053
1704716170620555,0.25378537,-0.10055647,10.41477776,0.01917476,-0.03302320,-0.00213053
1704716170622525,0.24899697,-0.12928689,10.40520096,0.01491370,-0.04261058,0.00745685
1704716170624533,0.26336220,-0.09576806,10.40998936,0.00426106,-0.04474111,0.00639159
1704716170626672,0.24899697,-0.11971009,10.41956615,0.00745685,-0.04474111,0.00639159
1704716170628553,0.26336220,-0.11013328,10.40520096,0.02556635,-0.04687164,-0.00106526
1704716170630518,0.26336220,-0.09576806,10.40998936,0.02982740,-0.04367584,0.00106526
1704716170632515,0.25378537,-0.11492168,10.41477776,0.02663161,-0.04367584,0.00106526
1704716170634528,0.26815060,-0.11492168,10.41477776,0.02237055,-0.05113269,0.00532632
1704716170636489,0.25378537,-0.10534488,10.42435455,0.02663161,-0.05539375,0.01278317
1704716170638555,0.27772740,-0.11492168,10.41956615,0.03834952,-0.05113269,0.00639159
1704716170640507,0.27772740,-0.08140286,10.40998936,0.03621899,-0.04687164,0.00745685
1704716170642684,0.26336220,-0.11013328,10.42914295,0.04048005,-0.05539375,0.00532632
1704716170644509,0.28730419,-0.09097967,10.41956615,0.04367584,-0.05432849,0.00639159
1704716170646565,0.25857377,-0.08619126,10.41956615,0.04793690,-0.05539375,0.00319579
1704716170648572,0.26815060,-0.10534488,10.42914295,0.04367584,-0.05219796,0.00213053
1704716170650492,0.27772740,-0.07661445,10.40520096,0.03195793,-0.04900216,0.00000000
1704716170652565,0.25378537,-0.09576806,10.41477776,0.04048005,-0.04900216,0.00213053
1704716170654530,0.28730419,-0.09097967,10.41477776,0.04793690,-0.04261058,0.00532632
1704716170656549,0.26336220,-0.07182605,10.40041256,0.04474111,-0.04793690,0.00319579
1704716170658541,0.26336220,-0.09097967,10.41956615,0.04580637,-0.05752428,-0.00532632
1704716170660466,0.28251579,-0.07182605,10.40041256,0.05113269,-0.06072007,0.00319579
1704716170662549,0.25378537,-0.07661445,10.40041256,0.05432849,-0.05113269,0.00958738
1704716170664586,0.28251579,-0.08140286,10.41477776,0.05113269,-0.05539375,0.01278317
1704716170666500,0.26815060,-0.06703765,10.39562416,0.04687164,-0.04900216,0.01384844
1704716170668514,0.24899697,-0.08140286,10.41956615,0.05113269,-0.04154531,0.00745685
1704716170670613,0.28251579,-0.08140286,10.41956615,0.05006743,-0.03728426,0.00639159
1704716170672800,0.24420857,-0.08140286,10.40520096,0.04687164,-0.03408846,0.01597897
1704716170674541,0.27293900,-0.09097967,10.44350815,0.03408846,-0.02663161,0.00426106
1704716170676532,0.25857377,-0.08619126,10.43871975,0.03302320,-0.02450108,-0.00213053
1704716170678505,0.22984336,-0.10055647,10.45308495,0.03515373,-0.01065264,0.00426106
1704716170680528,0.26336220,-0.10055647,10.47702694,0.03408846,-0.01597897,0.00532632
1704716170682521,0.22984336,-0.11013328,10.46745014,0.03621899,-0.01491370,0.00213053
1704716170684530,0.23463176,-0.11492168,10.51054573,0.03834952,-0.00958738,0.00106526
1704716170686507,0.24899697,-0.11492168,10.52969933,0.03195793,-0.01597897,0.01491370
1704716170688675,0.21547815,-0.11971009,10.53927612,0.02130529,-0.00852212,0.00319579
1704716170690502,0.24899697,-0.11492168,10.57758331,0.03408846,-0.00852212,-0.00532632
1704716170692612,0.22984336,-0.12449849,10.57279491,0.04793690,-0.01491370,-0.00852212
1704716170694514,0.22026655,-0.11971009,10.60152531,0.05219796,-0.02130529,-0.00106526
1704716170696557,0.24420857,-0.11971009,10.63025570,0.04367584,-0.02343582,-0.00319579
1704716170698620,0.21547815,-0.12928689,10.62546730,0.05219796,-0.03621899,0.00106526
1704716170700557,0.23942018,-0.11013328,10.65898609,0.05645901,-0.03195793,-0.00532632
1704716170702492,0.23942018,-0.12449849,10.65898609,0.03195793,-0.02343582,0.00106526
1704716170704561,0.22984336,-0.11971009,10.67335129,0.02343582,-0.05006743,0.00000000
1704716170706668,0.24899697,-0.11492168,10.70208168,0.03195793,-0.05326322,-0.00319579
1704716170708534,0.23463176,-0.13407530,10.68771648,0.02130529,-0.04367584,-0.01278317
1704716170710458,0.24420857,-0.11971009,10.70687008,0.00426106,-0.05645901,-0.01171791
1704716170712529,0.24899697,-0.13886370,10.70687008,-0.00106526,-0.06072007,-0.01065264
1704716170714621,0.23942018,-0.14844051,10.69250488,0.00106526,-0.05858954,-0.00958738
1704716170716563,0.24899697,-0.13407530,10.71165848,-0.00106526,-0.06498113,-0.00426106
1704716170718520,0.24420857,-0.15801731,10.69729328,-0.00532632,-0.08202536,0.00532632
1704716170720524,0.24899697,-0.13886370,10.69250488,-0.01384844,-0.08415589,-0.00639159
1704716170722542,0.24899697,-0.14844051,10.69729328,-0.00319579,-0.07350325,-0.00852212
1704716170724527,0.24899697,-0.15322891,10.67335129,0.00106526,-0.07350325,-0.01171791
1704716170726535,0.25378537,-0.12928689,10.67813969,-0.00852212,-0.08096009,-0.00532632
1704716170728538,0.24899697,-0.15322891,10.66377449,0.00106526,-0.07882957,-0.01171791
1704716170730519,0.25378537,-0.13407530,10.63983250,0.01491370,-0.08096009,-0.00745685
1704716170732533,0.24420857,-0.13886370,10.63504410,0.00426106,-0.06391586,-0.00745685
1704716170734524,0.25378537,-0.15322891,10.61110210,0.00426106,-0.06924219,-0.00213053
1704716170736494,0.24899697,-0.12449849,10.59194851,0.01278317,-0.07669904,0.00106526
1704716170738573,0.23942018,-0.14365210,10.58237171,0.01491370,-0.07456851,0.01384844
1704716170740505,0.25378537,-0.12449849,10.55364132,0.01810949,-0.06711166,0.02130529
1704716170742526,0.23463176,-0.11013328,10.53927612,0.02663161,-0.06498113,0.01917476
1704716170744498,0.24420857,-0.12928689,10.52012253,0.02450108,-0.06391586,0.01917476
1704716170746573,0.23942018,-0.10055647,10.49139214,0.02237055,-0.05219796,0.02237055
1704716170748522,0.22505496,-0.11013328,10.48660374,0.02450108,-0.05432849,0.02343582
1704716170750522,0.24899697,-0.11013328,10.45787334,0.02237055,-0.05219796,0.02024002
1704716170752499,0.22505496,-0.08619126,10.43393135,0.01917476,-0.04367584,0.01597897
1704716170754749,0.23463176,-0.10534488,10.42914295,0.01278317,-0.03621899,0.01491370
1704716170756542,0.23942018,-0.08619126,10.39562416,0.01491370,-0.04367584,0.01810949
1704716170758553,0.21547815,-0.08140286,10.38125896,0.01704423,-0.04793690,0.02130529
1704716170760498,0.24899697,-0.08619126,10.36689377,0.02982740,-0.05219796,0.01704423
1704716170762524,0.22984336,-0.06703765,10.32858658,0.02663161,-0.04580637,0.01917476
1704716170764689,0.23463176,-0.07182605,10.32858658,0.02024002,-0.03515373,0.02024002
1704716170766561,0.25378537,-0.07182605,10.29985619,0.02130529,-0.03089267,0.02130529
1704716170768518,0.22505496,-0.06224924,10.26633644,0.02237055,-0.03515373,0.01810949
1704716170770548,0.24899697,-0.06703765,10.26633644,0.02556635,-0.03941479,0.01704423
1704716170772564,0.23463176,-0.05746084,10.22324085,0.02982740,-0.03302320,0.01278317
1704716170774506,0.22505496,-0.05267244,10.21845245,0.02237055,-0.02343582,0.01171791
1704716170776549,0.25378537,-0.06224924,10.20408726,0.01384844,-0.00852212,0.00852212
1704716170778519,0.22026655,-0.05746084,10.16099167,0.01384844,-0.01810949,0.00639159
1704716170780513,0.23942018,-0.05746084,10.18014526,0.02237055,-0.02982740,0.00000000
1704716170782530,0.23463176,-0.06703765,10.14662647,0.01704423,-0.01810949,-0.00213053
1704716170784558,0.21547815,-0.05746084,10.12747288,0.01704423,-0.00106526,-0.00532632
1704716170786483,0.24420857,-0.06703765,10.14183807,0.01810949,-0.00213053,0.00213053
1704716170788559,0.22026655,-0.07661445,10.09395409,0.02024002,-0.00639159,0.00426106
1704716170790563,0.22505496,-0.06703765,10.10831928,0.01810949,0.00319579,-0.00106526
1704716170792525,0.22984336,-0.08140286,10.10353088,0.01491370,0.00000000,0.00213053
1704716170794509,0.20590134,-0.08619126,10.07001209,0.01597897,-0.00639159,0.00852212
1704716170796559,0.22505496,-0.08140286,10.09395409,0.00852212,0.00000000,0.00213053
1704716170798667,0.20590134,-0.10055647,10.06043530,0.00532632,0.00745685,0.00000000
1704716170800511,0.20590134,-0.08140286,10.05085850,-0.00319579,0.00532632,-0.00532632
1704716170802499,0.21547815,-0.09576806,10.06522369,-0.00319579,-0.00532632,-0.00852212
1704716170804535,0.20111294,-0.10055647,10.02691650,-0.00532632,-0.00213053,-0.00958738
1704716170806566,0.22026655,-0.08140286,10.03649330,-0.00426106,0.00213053,-0.00532632
1704716170808650,0.21068975,-0.11013328,10.02691650,-0.01597897,0.00000000,-0.00213053
1704716170810477,0.21547815,-0.10055647,10.00776291,-0.01704423,0.00000000,-0.00319579
1704716170812588,0.22505496,-0.09576806,10.03170490,-0.02663161,-0.00426106,0.00426106
1704716170814545,0.21068975,-0.12449849,10.00776291,-0.02450108,0.00106526,-0.00213053
1704716170816537,0.22505496,-0.09576806,10.00297451,-0.01171791,0.00532632,-0.00532632
1704716170818611,0.21547815,-0.11013328,10.01733971,0.00426106,0.00852212,-0.00532632
1704716170820536,0.22026655,-0.11492168,10.00297451,-0.00213053,0.00426106,-0.00106526
1704716170822548,0.22984336,-0.09576806,10.01255131,-0.01278317,0.00000000,-0.00213053
1704716170824551,0.21547815,-0.12449849,10.02212811,-0.01384844,0.01065264,-0.00745685
1704716170826628,0.23942018,-0.10055647,10.00776291,-0.00426106,0.01917476,-0.00958738
1704716170828533,0.22984336,-0.10055647,10.02212811,-0.00958738,0.01597897,0.00319579
1704716170830604,0.23463176,-0.11492168,10.02691650,0.00213053,0.00426106,0.00106526
1704716170832516,0.24899697,-0.08619126,10.02212811,0.00639159,0.00426106,0.00532632
1704716170834650,0.22984336,-0.10534488,10.04128170,0.00106526,0.00745685,0.00745685
1704716170836450,0.25857377,-0.09097967,10.03649330,-0.00958738,0.00958738,0.00639159
1704716170838552,0.24899697,-0.07661445,10.03649330,0.00000000,0.00000000,0.00639159
1704716170840545,0.24899697,-0.09576806,10.06043530,-0.00213053,-0.00106526,0.00106526
1704716170842539,0.27293900,-0.07182605,10.06043530,-0.01278317,0.00745685,0.00000000
1704716170844515,0.24420857,-0.08140286,10.07480049,-0.01810949,0.00639159,0.00000000
1704716170846559,0.27293900,-0.08140286,10.09395409,-0.00639159,0.00319579,0.01065264
1704716170848552,0.26815060,-0.06224924,10.07958889,-0.00426106,0.01491370,0.00745685
1704716170850483,0.25378537,-0.07182605,10.11310768,0.00000000,0.01278317,0.01278317
1704716170852530,0.27293900,-0.06703765,10.12268448,-0.00213053,0.00213053,0.00852212
1704716170854547,0.24899697,-0.06224924,10.12747288,-0.02024002,-0.00213053,0.00213053
1704716170856520,0.26815060,-0.06703765,10.15620327,-0.02237055,0.00852212,0.00426106
1704716170858561,0.26815060,-0.05746084,10.14662647,-0.01597897,0.00319579,0.00426106
1704716170860486,0.24420857,-0.06703765,10.16578007,-0.01917476,-0.00319579,0.00426106
1704716170862513,0.25857377,-0.06224924,10.18972206,-0.03408846,-0.00426106,-0.00426106
1704716170864564,0.23463176,-0.07182605,10.19451046,-0.02769688,-0.00639159,0.00000000
1704716170866685,0.24420857,-0.07182605,10.22802925,-0.01384844,-0.00852212,0.00532632
1704716170868488,0.25378537,-0.06703765,10.23760605,-0.00426106,-0.02024002,0.00532632
1704716170870628,0.22505496,-0.07661445,10.24718285,-0.01278317,-0.01917476,0.00213053
1704716170872541,0.25378537,-0.06703765,10.29027843,-0.02450108,-0.01810949,0.00852212
1704716170874488,0.22984336,-0.08619126,10.28070164,-0.01917476,-0.02982740,0.01384844
1704716170876516,0.23463176,-0.07661445,10.29985619,0.00213053,-0.04261058,0.00213053
1704716170878541,0.25378537,-0.06703765,10.31422138,0.00106526,-0.03195793,-0.00213053
1704716170880595,0.22984336,-0.08619126,10.30943298,-0.00213053,-0.02769688,0.00426106
1704716170882540,0.22984336,-0.07661445,10.32858658,0.01278317,-0.03834952,0.01171791
1704716170884537,0.23942018,-0.07182605,10.35731697,0.01597897,-0.04367584,0.01278317
1704716170886521,0.22026655,-0.08619126,10.33816338,0.01278317,-0.03834952,0.00213053
1704716170888564,0.23942018,-0.05746084,10.37168217,0.02237055,-0.04261058,-0.00213053
1704716170890512,0.22505496,-0.07661445,10.37647057,0.02237055,-0.04367584,0.00319579
1704716170892538,0.22505496,-0.06224924,10.38125896,0.03089267,-0.04687164,0.00958738
1704716170894490,0.23463176,-0.04788403,10.41477776,0.03834952,-0.04793690,0.00532632
1704716170896564,0.22026655,-0.06224924,10.40041256,0.04474111,-0.03621899,0.00852212
1704716170898595,0.22984336,-0.02873042,10.42435455,0.04154531,-0.02876214,0.00852212
1704716170900518,0.22026655,-0.04309563,10.44350815,0.04580637,-0.03408846,0.00532632
1704716170902507,0.22505496,-0.03351882,10.43393135,0.04048005,-0.02769688,0.01278317
1704716170904576,0.22026655,-0.01436521,10.46266174,0.04048005,-0.02450108,0.00958738
1704716170906562,0.21068975,-0.04309563,10.46266174,0.05006743,-0.01704423,0.00426106
1704716170908520,0.22505496,-0.01436521,10.46266174,0.04474111,-0.00213053,0.00639159
1704716170910493,0.20590134,-0.02873042,10.47702694,0.03408846,-0.00852212,0.00532632
1704716170912522,0.21068975,-0.03351882,10.46266174,0.03515373,-0.01065264,-0.00106526
1704716170914566,0.20111294,-0.01436521,10.47702694,0.04580637,-0.01065264,0.00319579
1704716170916558,0.19153613,-0.04309563,10.48181534,0.03515373,-0.00106526,0.00639159
1704716170918541,0.20111294,-0.01915361,10.46266174,0.02556635,-0.00532632,-0.00319579
1704716170920541,0.18674773,-0.04309563,10.47702694,0.02663161,-0.00958738,-0.00106526
1704716170922552,0.19632454,-0.03830723,10.46745014,0.03515373,-0.00639159,-0.00213053
1704716170924600,0.18195933,-0.01915361,10.46266174,0.02343582,-0.00213053,-0.00213053
1704716170926535,0.18195933,-0.04309563,10.47223854,0.02343582,-0.00106526,-0.00319579
1704716170928518,0.19632454,-0.02873042,10.44829655,0.02024002,-0.00745685,0.00000000
1704716170930527,0.17717093,-0.03351882,10.44829655,0.02024002,0.00000000,-0.01278317
1704716170932655,0.18674773,-0.04788403,10.44350815,0.01491370,0.00532632,-0.00639159
1704716170934668,0.18195933,-0.03351882,10.42435455,0.00958738,0.00852212,0.00532632
1704716170936544,0.17238252,-0.04788403,10.43393135,0.00958738,0.00745685,0.00213053
1704716170938585,0.18195933,-0.04788403,10.41477776,0.00958738,0.02130529,-0.00319579
1704716170940517,0.16280572,-0.04309563,10.40041256,0.00319579,0.03408846,-0.00532632
1704716170942520,0.17717093,-0.04788403,10.40520096,-0.00213053,0.02663161,-0.00426106
1704716170944504,0.17238252,-0.04788403,10.38125896,0.00639159,0.02237055,-0.00852212
1704716170946700,0.16280572,-0.05267244,10.38604736,0.00319579,0.03408846,-0.01171791
1704716170948556,0.17238252,-0.05267244,10.38125896,0.00639159,0.04048005,-0.01065264
1704716170950498,0.16280572,-0.05267244,10.35252857,0.00106526,0.03728426,-0.00958738
1704716170952526,0.17238252,-0.05267244,10.36210537,0.00852212,0.04367584,-0.01278317
1704716170954565,0.15801731,-0.05746084,10.33816338,0.01597897,0.06285060,-0.01810949
1704716170956526,0.16280572,-0.04309563,10.34774017,0.01278317,0.06498113,-0.01704423
1704716170958563,0.15322891,-0.05267244,10.33337498,0.01171791,0.07669904,-0.01384844
1704716170960477,0.14844051,-0.04788403,10.30943298,0.02769688,0.08948221,-0.01278317
1704716170962530,0.14365210,-0.03351882,10.31422138,0.03834952,0.09480853,-0.01491370
1704716170964688,0.13407530,-0.04309563,10.28070164,0.02556635,0.09693906,-0.01384844
1704716170966526,0.13886370,-0.02394202,10.28070164,0.01917476,0.09587380,-0.01065264
1704716170968598,0.12449849,-0.02394202,10.26633644,0.03728426,0.10439591,-0.00319579
1704716170970553,0.12449849,-0.02394202,10.22802925,0.05752428,0.11930962,0.00000000
1704716170972549,0.12928689,0.00478840,10.22324085,0.06072007,0.12676647,-0.00426106
1704716170974572,0.11492168,-0.00957681,10.19929886,0.05326322,0.12357067,0.00213053
1704716170976558,0.12928689,0.00957681,10.18014526,0.05858954,0.12570120,0.00000000
1704716170978548,0.11971009,0.01436521,10.17535686,0.07563377,0.13528858,-0.00426106
1704716170980533,0.12449849,0.01436521,10.14662647,0.07563377,0.13422331,0.00319579
1704716170982513,0.12928689,0.03830723,10.13704967,0.06924219,0.13102752,0.00532632
1704716170984534,0.11492168,0.02394202,10.12747288,0.06817693,0.13528858,-0.00639159
1704716170986551,0.13407530,0.03830723,10.10831928,0.08202536,0.13954964,-0.00958738
1704716170988557,0.11971009,0.04788403,10.10831928,0.08415589,0.13102752,0.00639159
1704716170990509,0.12449849,0.03830723,10.09395409,0.07776430,0.12996227,0.00213053
1704716170992545,0.13407530,0.05267244,10.07958889,0.07776430,0.13315806,-0.00106526
1704716170994519,0.11971009,0.04309563,10.07958889,0.07882957,0.13102752,0.00639159
1704716170996566,0.14365210,0.04309563,10.06522369,0.07030746,0.12357067,0.01491370
1704716170998540,0.12928689,0.05267244,10.05564690,0.08309063,0.12357067,0.01171791
1704716171000512,0.13407530,0.04309563,10.05564690,0.09587380,0.12996227,0.01171791
1704716171002532,0.15322891,0.05746084,10.03170490,0.09693906,0.12996227,0.00958738
1704716171004566,0.14365210,0.05267244,10.03649330,0.07989483,0.12783173,0.01491370
1704716171006654,0.16280572,0.04788403,10.02691650,0.07563377,0.12463594,0.01278317
1704716171008556,0.15322891,0.04788403,10.00297451,0.07776430,0.12889700,0.00852212
1704716171010491,0.15801731,0.03830723,10.01733971,0.08202536,0.12996227,0.01065264
1704716171012574,0.17238252,0.03830723,9.99818611,0.07669904,0.12570120,0.00745685
1704716171014604,0.16280572,0.02873042,9.98860931,0.07243798,0.12676647,0.00852212
1704716171016553,0.18195933,0.02394202,10.00297451,0.07030746,0.12463594,0.01171791
1704716171018532,0.17717093,0.02394202,9.99339771,0.08415589,0.12357067,0.01278317
1704716171020536,0.17238252,0.01436521,9.97903252,0.08096009,0.11611383,0.01704423
1704716171022565,0.19153613,0.01915361,9.99339771,0.07243798,0.11717909,0.01384844
1704716171024559,0.18195933,0.00478840,9.96945572,0.07350325,0.12144014,0.01917476
1704716171026575,0.19153613,0.00957681,9.97903252,0.07776430,0.11291803,0.01491370
1704716171028554,0.19632454,0.00478840,9.98382092,0.07989483,0.10652644,0.01384844
1704716171030551,0.19153613,-0.00478840,9.95987892,0.07989483,0.10865697,0.01384844
1704716171032523,0.20590134,0.00478840,9.97903252,0.07989483,0.10759171,0.01065264
1704716171034553,0.19153613,-0.00957681,9.96466732,0.07563377,0.10652644,0.00852212
1704716171036555,0.21068975,-0.00478840,9.96466732,0.08096009,0.10439591,0.00852212
1704716171038576,0.20590134,0.00000000,9.97424412,0.08415589,0.09693906,0.00106526
1704716171040515,0.21068975,-0.01436521,9.95030212,0.08522116,0.09054748,0.00745685
1704716171042525,0.22505496,0.00478840,9.96466732,0.07882957,0.08522116,0.00958738
1704716171044490,0.20590134,-0.00957681,9.95987892,0.07882957,0.08415589,0.00213053
1704716171046563,0.23463176,0.00478840,9.95509052,0.07669904,0.07882957,0.00319579
1704716171048567,0.22026655,0.00478840,9.95987892,0.07243798,0.07456851,0.00000000
1704716171050596,0.22026655,-0.00957681,9.95030212,0.07030746,0.07456851,-0.00319579
1704716171052516,0.22505496,0.00478840,9.95987892,0.06817693,0.07350325,-0.00852212
1704716171054575,0.21547815,-0.00478840,9.95987892,0.07243798,0.07456851,-0.00639159
1704716171056569,0.24420857,0.00000000,9.95509052,0.07563377,0.06498113,-0.01171791
1704716171058543,0.22984336,0.00000000,9.96466732,0.07669904,0.05858954,-0.00745685
1704716171060526,0.22505496,-0.00957681,9.96945572,0.07137272,0.06072007,-0.00319579
1704716171062538,0.23942018,0.00000000,9.96945572,0.08202536,0.06817693,0.00000000
1704716171064594,0.21068975,-0.00957681,9.97903252,0.08841695,0.07350325,-0.00426106
1704716171066614,0.23463176,-0.00957681,9.98382092,0.07989483,0.07030746,-0.00639159
1704716171068528,0.21547815,-0.01436521,9.97903252,0.07350325,0.06924219,-0.01171791
1704716171070542,0.20590134,-0.01436521,9.99818611,0.07456851,0.06817693,-0.01491370
1704716171072556,0.21547815,-0.00957681,9.99818611,0.07456851,0.07776430,-0.01810949
1704716171074554,0.19632454,-0.01436521,9.99818611,0.06498113,0.07563377,-0.00745685
1704716171076562,0.21068975,-0.00478840,10.02212811,0.05326322,0.06604639,-0.00745685
1704716171078551,0.19153613,-0.01436521,10.01255131,0.06178534,0.04900216,-0.01384844
1704716171080552,0.19153613,-0.00957681,10.03649330,0.06072007,0.05432849,-0.01278317
1704716171082563,0.18674773,-0.00957681,10.05085850,0.05645901,0.04687164,-0.00958738
1704716171084549,0.17717093,-0.01915361,10.04128170,0.04154531,0.03728426,-0.00532632
1704716171086530,0.18674773,0.00000000,10.07480049,0.03728426,0.03302320,-0.00958738
1704716171088530,0.17238252,-0.01436521,10.07001209,0.03302320,0.04687164,-0.00426106
1704716171090519,0.17717093,0.00478840,10.10353088,0.02556635,0.03941479,-0.00532632
1704716171092544,0.17238252,-0.00478840,10.10831928,0.02343582,0.02663161,0.00213053
1704716171094632,0.17717093,-0.01436521,10.09395409,0.03302320,0.01704423,0.00000000
1704716171096561,0.17238252,0.00000000,10.12747288,0.03834952,0.02663161,-0.00426106
1704716171098557,0.16759412,-0.00957681,10.12268448,0.04474111,0.02876214,-0.00426106
1704716171100544,0.18674773,0.00478840,10.12268448,0.03728426,0.02556635,0.00319579
1704716171102558,0.16759412,0.00478840,10.14662647,0.04154531,0.02237055,0.00000000
1704716171104608,0.17238252,-0.00478840,10.13704967,0.04048005,0.03408846,-0.01171791
1704716171106608,0.17238252,0.00957681,10.14662647,0.02876214,0.03728426,-0.00745685
1704716171108557,0.15801731,0.00000000,10.15620327,0.02024002,0.02343582,0.00213053
1704716171110499,0.17238252,0.00957681,10.15141487,0.03195793,0.02024002,-0.00106526
1704716171112546,0.15322891,0.00957681,10.16578007,0.04048005,0.02876214,0.00106526
1704716171114586,0.15801731,0.00957681,10.17056847,0.02982740,0.03515373,0.00106526
1704716171116573,0.15801731,0.01436521,10.17056847,0.02663161,0.03195793,-0.00426106
1704716171118539,0.14844051,0.00957681,10.18972206,0.03621899,0.03302320,-0.00213053
1704716171120582,0.15801731,0.01436521,10.19451046,0.03408846,0.03408846,0.00213053
1704716171122548,0.14844051,0.00957681,10.19451046,0.01384844,0.04154531,0.00000000
1704716171124561,0.15322891,0.01915361,10.21366405,0.02130529,0.04048005,0.00426106
1704716171126576,0.15322891,0.00957681,10.20887566,0.03408846,0.04900216,-0.00319579
1704716171128558,0.14844051,0.00957681,10.21845245,0.02876214,0.05858954,-0.00106526
1704716171130565,0.14844051,0.01436521,10.22802925,0.01065264,0.05752428,0.00426106
1704716171132445,0.14365210,0.00000000,10.21845245,0.02024002,0.06285060,0.00106526
1704716171134553,0.13886370,0.00957681,10.24239445,0.04154531,0.07456851,-0.00213053
1704716171136561,0.13886370,0.00000000,10.23760605,0.02876214,0.07776430,0.00532632
1704716171138731,0.14365210,0.00478840,10.23760605,0.02130529,0.07243798,0.00532632
1704716171140526,0.12928689,0.00000000,10.25675964,0.03941479,0.06604639,-0.00426106
1704716171142527,0.13407530,-0.00478840,10.24718285,0.05006743,0.07137272,-0.00213053
1704716171144568,0.13407530,0.01436521,10.26633644,0.05432849,0.07882957,0.00000000
1704716171146578,0.12449849,0.00000000,10.27112484,0.05219796,0.07350325,0.00319579
1704716171148562,0.14365210,0.00478840,10.26633644,0.05326322,0.06817693,0.00745685
1704716171152999,0.13407530,0.00957681,10.28549004,0.06178534,0.08202536,0.01171791
1704716171154578,0.13407530,0.00957681,10.28549004,0.05965481,0.08096009,0.00639159
1704716171156563,0.12449849,-0.00478840,10.29027843,0.05326322,0.08202536,-0.00532632
1704716171158552,0.14365210,-0.00478840,10.29027843,0.06391586,0.09054748,-0.01065264
1704716171160503,0.12928689,-0.00478840,10.29506683,0.06924219,0.08522116,-0.00213053
1704716171162528,0.13886370,-0.00957681,10.29506683,0.06178534,0.08522116,0.00000000
1704716171164826,0.14365210,-0.00957681,10.29506683,0.05539375,0.08096009,-0.00532632
1704716171166585,0.13407530,-0.01436521,10.29985619,0.06285060,0.07776430,-0.00958738
1704716171168548,0.15322891,-0.01436521,10.29985619,0.06072007,0.07882957,-0.01278317
1704716171170526,0.14365210,-0.02394202,10.29027843,0.06072007,0.07989483,-0.00958738
1704716171172558,0.14844051,-0.01915361,10.29985619,0.06072007,0.07350325,-0.00745685
1704716171174561,0.14844051,-0.02873042,10.29506683,0.05645901,0.07243798,-0.00532632
1704716171176485,0.14365210,-0.02873042,10.28549004,0.05326322,0.07669904,-0.00106526
1704716171178548,0.15322891,-0.03351882,10.27591324,0.06178534,0.07243798,-0.00745685
1704716171180586,0.15322891,-0.03830723,10.26633644,0.06817693,0.05965481,-0.00532632
1704716171182746,0.15801731,-0.02394202,10.27112484,0.06072007,0.05858954,-0.00958738
1704716171184536,0.16280572,-0.04788403,10.25675964,0.05006743,0.06711166,-0.00213053
1704716171186560,0.16759412,-0.04309563,10.24718285,0.05539375,0.06178534,-0.00319579
1704716171188591,0.16280572,-0.03351882,10.25197124,0.06498113,0.05965481,0.00000000
1704716171190515,0.17717093,-0.05267244,10.22802925,0.06604639,0.06604639,-0.00106526
1704716171192556,0.17717093,-0.04309563,10.22802925,0.05752428,0.06178534,-0.00745685
1704716171194530,0.17238252,-0.05267244,10.22802925,0.04261058,0.05752428,-0.00319579
1704716171196553,0.19153613,-0.05746084,10.20408726,0.02024002,0.06604639,-0.00426106
1704716171198587,0.17717093,-0.05267244,10.19929886,0.01384844,0.06391586,-0.00319579
1704716171200514,0.19153613,-0.06703765,10.18972206,0.02237055,0.06285060,-0.00958738
1704716171202543,0.19632454,-0.05746084,10.17535686,0.01278317,0.06711166,-0.00639159
1704716171204581,0.18674773,-0.06703765,10.18014526,-0.00106526,0.06285060,-0.00958738
1704716171206583,0.20590134,-0.06703765,10.16099167,0.00000000,0.05965481,-0.00532632
1704716171208540,0.19153613,-0.06703765,10.14662647,0.00000000,0.07243798,-0.00958738
1704716171210523,0.20590134,-0.06703765,10.14662647,-0.00745685,0.06711166,-0.00532632
1704716171212550,0.21068975,-0.07182605,10.12747288,-0.01278317,0.05858954,-0.01171791
1704716171214551,0.20111294,-0.07182605,10.12268448,-0.01810949,0.05645901,-0.00532632
1704716171216544,0.20590134,-0.07182605,10.11789608,-0.01597897,0.05858954,-0.01065264
1704716171218562,0.20111294,-0.08140286,10.09395409,-0.02130529,0.05752428,-0.00745685
1704716171220523,0.20590134,-0.07182605,10.08916569,-0.03728426,0.05432849,-0.00426106
1704716171222564,0.20590134,-0.07661445,10.07480049,-0.05006743,0.04900216,0.00000000
1704716171224573,0.20590134,-0.08140286,10.05564690,-0.05006743,0.03408846,0.00106526
1704716171226630,0.20111294,-0.07182605,10.05564690,-0.04474111,0.03621899,0.00000000
1704716171228568,0.21068975,-0.08140286,10.02212811,-0.06178534,0.03728426,-0.00532632
1704716171230543,0.21068975,-0.07661445,10.02691650,-0.07243798,0.03195793,-0.00319579
1704716171232588,0.19632454,-0.08619126,10.01733971,-0.07882957,0.02769688,0.00106526
1704716171234558,0.21547815,-0.09576806,9.99339771,-0.07882957,0.02769688,0.00532632
1704716171236511,0.19632454,-0.08140286,9.99339771,-0.09374327,0.02556635,0.00958738
1704716171238578,0.20111294,-0.10055647,9.97903252,-0.10013486,0.02663161,0.00213053
1704716171240517,0.21068975,-0.09097967,9.96466732,-0.08948221,0.02769688,-0.00213053
1704716171242552,0.18674773,-0.09097967,9.95509052,-0.08735169,0.02769688,0.00000000
1704716171244538,0.21068975,-0.09576806,9.94551373,-0.08841695,0.01491370,0.00000000
1704716171246615,0.19153613,-0.08619126,9.93593693,-0.09693906,0.00319579,0.00426106
1704716171248557,0.19632454,-0.08140286,9.93593693,-0.09480853,0.00426106,0.00213053
1704716171250536,0.20590134,-0.08140286,9.91678333,-0.09267800,0.00213053,0.00745685
1704716171252498,0.18674773,-0.07661445,9.90241814,-0.09800433,-0.00426106,0.00000000
1704716171254571,0.21068975,-0.07182605,9.91199493,-0.09906960,-0.01704423,-0.00106526
1704716171256619,0.19153613,-0.07661445,9.89284134,-0.08628642,-0.01597897,-0.00958738
1704716171258527,0.19153613,-0.06224924,9.88805294,-0.07563377,-0.01491370,-0.00319579
1704716171260526,0.20590134,-0.05746084,9.88326454,-0.07350325,-0.01384844,-0.00319579
1704716171262558,0.19153613,-0.05267244,9.86411095,-0.07669904,-0.02130529,0.00106526
1704716171264540,0.20111294,-0.03351882,9.87368774,-0.06924219,-0.01491370,-0.00532632
1704716171266640,0.19153613,-0.04309563,9.85932255,-0.05965481,-0.00958738,0.00426106
1704716171268541,0.19632454,-0.02394202,9.84974575,-0.05645901,-0.01917476,0.00000000
1704716171270537,0.19632454,-0.01915361,9.85453415,-0.05752428,-0.01917476,-0.00106526
1704716171272577,0.19632454,-0.02394202,9.83059216,-0.05113269,-0.00745685,-0.00426106
1704716171274549,0.19632454,0.00000000,9.83538055,-0.04793690,0.00106526,0.00106526
1704716171277150,0.20590134,0.00000000,9.81622696,-0.03621899,-0.00426106,0.00639159
1704716171279096,0.18674773,0.00957681,9.82580376,-0.03941479,0.01171791,0.00319579
1704716171281146,0.19632454,-0.00957681,9.81143856,-0.04687164,0.02343582,0.00426106
1704716171283247,0.19632454,0.00957681,9.80665016,-0.04261058,0.02024002,0.00106526
1704716171285119,0.17717093,0.00000000,9.81143856,-0.02876214,0.00958738,0.00319579
1704716171287168,0.20111294,0.00000000,9.80665016,-0.01278317,0.01491370,0.01384844
1704716171289293,0.17238252,0.00478840,9.80665016,-0.00639159,0.02982740,0.01065264
1704716171291132,0.17717093,-0.00478840,9.81143856,-0.00639159,0.03089267,0.00213053
1704716171293110,0.19153613,0.00478840,9.81143856,-0.00319579,0.02343582,-0.00213053
1704716171295229,0.16280572,0.00478840,9.81622696,0.00426106,0.02556635,0.00106526
1704716171297264,0.19153613,0.00000000,9.82580376,0.02024002,0.03728426,-0.00426106
1704716171299338,0.16759412,0.00478840,9.81622696,0.02769688,0.03302320,-0.00213053
1704716171301238,0.17717093,0.00957681,9.83538055,0.01704423,0.04048005,-0.00106526
1704716171303256,0.19153613,0.00478840,9.84495735,0.01065264,0.04261058,0.00106526
1704716171305271,0.16759412,0.00000000,9.84016895,0.01171791,0.04793690,-0.00213053
1704716171307267,0.19153613,0.00478840,9.86411095,0.02876214,0.05326322,0.00213053
1704716171309750,0.16759412,-0.00478840,9.85932255,0.03302320,0.05539375,-0.00319579
1704716171310498,0.16759412,-0.00478840,9.85932255,0.02876214,0.05752428,-0.00106526
1704716171312627,0.17717093,0.00478840,9.87368774,0.02130529,0.06285060,-0.00319579
1704716171314832,0.18674773,-0.00478840,9.88805294,0.01704423,0.05965481,-0.01171791
1704716171316566,0.18195933,-0.00478840,9.89284134,0.02769688,0.05219796,-0.01917476
1704716171318548,0.18195933,0.00000000,9.90720654,0.02769688,0.04900216,-0.00852212
1704716171320542,0.17717093,-0.01915361,9.91199493,0.01384844,0.05006743,0.00319579
1704716171322606,0.18674773,-0.01436521,9.92157173,-0.00532632,0.05645901,-0.01065264
1704716171324588,0.18195933,-0.01915361,9.94551373,-0.00426106,0.05219796,-0.01384844
1704716171326549,0.19153613,-0.03830723,9.93593693,0.00319579,0.05858954,-0.00532632
1704716171328506,0.19153613,-0.01915361,9.95987892,-0.00213053,0.05113269,0.00532632
1704716171330560,0.18674773,-0.04309563,9.97424412,-0.01278317,0.04580637,0.00426106
1704716171332554,0.20590134,-0.03830723,9.97903252,-0.01171791,0.04793690,0.00426106
1704716171334540,0.18674773,-0.03351882,9.99339771,-0.00639159,0.04900216,-0.00213053
1704716171336519,0.21068975,-0.05267244,9.99818611,-0.01704423,0.03728426,0.01171791
1704716171338624,0.20590134,-0.03830723,10.01255131,-0.02663161,0.03408846,0.00319579
1704716171340580,0.20111294,-0.04788403,10.02691650,-0.02343582,0.04154531,-0.00319579
1704716171342521,0.22505496,-0.05267244,10.03170490,-0.02237055,0.03834952,-0.00745685
1704716171344558,0.19632454,-0.04788403,10.03170490,-0.01810949,0.02876214,-0.00106526
1704716171346712,0.22026655,-0.05746084,10.04607010,-0.02130529,0.02663161,-0.00213053
1704716171348562,0.21547815,-0.05746084,10.05085850,-0.02556635,0.01171791,-0.00958738
1704716171350514,0.20111294,-0.05746084,10.06043530,-0.02769688,0.01704423,-0.01065264
1704716171352502,0.22505496,-0.06224924,10.07480049,-0.02769688,0.02237055,-0.01065264
1704716171354579,0.20111294,-0.05746084,10.06522369,-0.04261058,0.00958738,-0.00958738
1704716171356618,0.22026655,-0.05267244,10.08916569,-0.05965481,0.00000000,-0.00958738
1704716171358676,0.21068975,-0.07182605,10.08916569,-0.05965481,-0.00426106,-0.01597897
1704716171360506,0.21068975,-0.05267244,10.10353088,-0.07137272,-0.01171791,-0.01597897
1704716171362543,0.21547815,-0.06224924,10.11310768,-0.08735169,-0.02556635,-0.00532632
1704716171364718,0.20590134,-0.07182605,10.09874249,-0.09267800,-0.03408846,0.00000000
1704716171366532,0.21547815,-0.05267244,10.11789608,-0.08202536,-0.02876214,-0.00745685
1704716171368535,0.21547815,-0.07661445,10.12268448,-0.07989483,-0.02237055,-0.01278317
1704716171370520,0.22026655,-0.05746084,10.11789608,-0.08309063,-0.03515373,-0.00532632
1704716171372589,0.21547815,-0.06224924,10.14183807,-0.08841695,-0.04154531,-0.00745685
1704716171374553,0.22505496,-0.07661445,10.13226128,-0.08628642,-0.04154531,-0.00958738
1704716171376562,0.22026655,-0.05746084,10.14662647,-0.09480853,-0.03728426,-0.00958738
1704716171378553,0.22026655,-0.07661445,10.15141487,-0.08522116,-0.04261058,0.00426106
1704716171380618,0.23463176,-0.06224924,10.15141487,-0.07989483,-0.04367584,-0.00106526
1704716171382532,0.21068975,-0.06224924,10.16578007,-0.07669904,-0.03621899,-0.00319579
1704716171384521,0.23463176,-0.07182605,10.16578007,-0.07669904,-0.03302320,-0.00852212
1704716171386647,0.22026655,-0.05267244,10.16578007,-0.07563377,-0.04474111,-0.00319579
1704716171388587,0.21547815,-0.05746084,10.17056847,-0.07030746,-0.04261058,0.00319579
1704716171390650,0.22984336,-0.05267244,10.17535686,-0.05539375,-0.04793690,0.00106526
1704716171392555,0.20111294,-0.04788403,10.17056847,-0.05965481,-0.04793690,0.00426106
1704716171394618,0.22026655,-0.04788403,10.18014526,-0.06924219,-0.04261058,0.00852212
1704716171396523,0.20590134,-0.04309563,10.17056847,-0.05539375,-0.05219796,0.00319579
1704716171398585,0.21068975,-0.03351882,10.17535686,-0.02343582,-0.05113269,-0.00213053
1704716171400510,0.21547815,-0.03351882,10.17535686,-0.02450108,-0.03408846,0.00319579
1704716171402693,0.18674773,-0.02873042,10.16099167,-0.04154531,-0.03195793,0.00319579
1704716171404559,0.20590134,-0.02394202,10.17535686,-0.04367584,-0.04687164,0.00852212
1704716171406588,0.19153613,-0.02873042,10.16099167,-0.03302320,-0.03728426,0.00319579
1704716171408555,0.18195933,-0.00957681,10.15620327,-0.03089267,-0.02876214,0.00852212
1704716171410498,0.18674773,-0.01436521,10.16578007,-0.02343582,-0.02982740,0.00745685
1704716171412521,0.17717093,-0.01915361,10.14662647,-0.02876214,-0.02450108,0.00426106
1704716171414612,0.17717093,0.00478840,10.15620327,-0.01704423,-0.01917476,-0.00745685
1704716171416551,0.16759412,-0.01915361,10.14662647,-0.01917476,-0.01278317,-0.00532632
1704716171418531,0.16759412,0.00478840,10.12747288,-0.01278317,-0.01597897,-0.00213053
1704716171420530,0.16280572,0.00478840,10.14183807,-0.00426106,-0.01810949,-0.00426106
1704716171422572,0.16280572,-0.00957681,10.12268448,0.00639159,-0.00958738,-0.00532632
1704716171424555,0.15801731,0.01436521,10.12268448,-0.00106526,-0.00213053,-0.00106526
1704716171426626,0.15322891,-0.00478840,10.11310768,-0.00426106,-0.00213053,0.00106526
1704716171428508,0.16759412,0.00478840,10.09395409,0.00532632,-0.00319579,0.00213053
1704716171430541,0.14844051,0.00957681,10.08916569,0.01384844,-0.00426106,0.00319579
1704716171432552,0.15801731,-0.00957681,10.07480049,0.01171791,0.01278317,-0.00532632
1704716171434515,0.15801731,0.01436521,10.06522369,-0.00106526,0.00958738,0.00213053
1704716171436538,0.14365210,-0.00478840,10.05564690,-0.01171791,0.02024002,0.00319579
1704716171438585,0.16759412,-0.00478840,10.04128170,-0.01171791,0.02450108,-0.00745685
1704716171440548,0.13886370,-0.00478840,10.03170490,0.00745685,0.02556635,0.00213053
1704716171442559,0.16759412,-0.00957681,10.02691650,0.00319579,0.02876214,0.00639159
1704716171444606,0.15801731,-0.00478840,10.02212811,-0.00213053,0.02876214,-0.00106526
1704716171446634,0.13886370,-0.00957681,10.01255131,0.00958738,0.03834952,-0.00745685
1704716171448582,0.16280572,-0.00957681,10.00776291,0.00639159,0.04261058,0.00319579
1704716171450538,0.13886370,-0.00478840,9.99339771,-0.00958738,0.03834952,0.00213053
1704716171452542,0.15322891,-0.00478840,10.00297451,-0.01810949,0.04261058,-0.00532632
1704716171454573,0.15322891,-0.00957681,9.99339771,-0.00213053,0.04367584,-0.00852212
1704716171456569,0.13407530,-0.00478840,9.98382092,0.00213053,0.04793690,-0.00426106
1704716171458580,0.15801731,0.00000000,9.99339771,-0.00426106,0.04367584,0.00000000
1704716171460495,0.14365210,-0.00957681,9.96945572,0.00000000,0.03621899,-0.00426106
1704716171462536,0.14844051,0.00478840,9.97903252,0.00958738,0.04367584,-0.01171791
1704716171464632,0.15322891,-0.01436521,9.97903252,0.00319579,0.03834952,-0.01597897
1704716171466583,0.14844051,-0.00957681,9.95987892,-0.00852212,0.02556635,-0.01384844
1704716171468539,0.16280572,0.00000000,9.97424412,-0.00319579,0.02450108,-0.02024002
1704716171470536,0.15801731,-0.02394202,9.95030212,0.00958738,0.02130529,-0.01810949
1704716171472556,0.16280572,0.00478840,9.95509052,0.01384844,0.01704423,-0.01171791
1704716171474563,0.16280572,-0.00957681,9.95987892,0.00319579,0.01065264,-0.00319579
1704716171476559,0.17238252,-0.00957681,9.93593693,0.00958738,0.00852212,-0.00532632
1704716171478538,0.16759412,0.00957681,9.94551373,0.01917476,0.01278317,-0.01491370
1704716171480539,0.17238252,-0.01915361,9.93114853,0.02024002,0.00958738,-0.01065264
1704716171482557,0.18195933,0.00957681,9.92636013,0.00532632,0.00000000,-0.00532632
1704716171484598,0.17238252,0.00000000,9.92636013,0.00106526,-0.01278317,-0.01065264
1704716171486532,0.19153613,0.00000000,9.90720654,0.01384844,-0.00852212,-0.01384844
1704716171488704,0.18195933,0.00957681,9.91199493,0.01278317,-0.00852212,-0.00958738
1704716171490543,0.18674773,-0.01436521,9.90720654,-0.00532632,-0.02556635,-0.01491370
1704716171492573,0.20111294,0.00000000,9.90241814,0.00106526,-0.02876214,-0.01171791
1704716171494539,0.18195933,-0.00478840,9.90241814,0.01171791,-0.02556635,-0.00213053
1704716171496592,0.20590134,-0.00957681,9.89762974,0.00639159,-0.02982740,0.00213053
1704716171498543,0.19153613,0.00000000,9.89284134,-0.00532632,-0.03621899,-0.00106526
1704716171500547,0.19153613,-0.00478840,9.89762974,0.00000000,-0.02982740,-0.00319579
1704716171502534,0.20111294,-0.00478840,9.89284134,0.00532632,-0.02876214,-0.00106526
1704716171504569,0.18195933,0.00000000,9.88805294,0.00426106,-0.03834952,-0.00639159
1704716171506587,0.19632454,0.00478840,9.89284134,0.01171791,-0.04580637,0.00213053
1704716171508576,0.18674773,-0.00478840,9.88805294,0.02343582,-0.04048005,0.00319579
1704716171510529,0.18195933,0.00478840,9.88805294,0.01597897,-0.02769688,0.00426106
1704716171512532,0.19153613,0.00478840,9.89284134,0.00426106,-0.02556635,0.01278317
1704716171514606,0.17717093,0.00000000,9.88326454,0.00852212,-0.03728426,0.00958738
1704716171516561,0.17717093,0.01436521,9.89762974,0.01278317,-0.03195793,0.00852212
1704716171518539,0.17238252,0.00000000,9.89284134,0.01171791,-0.01597897,0.00852212
1704716171520526,0.16759412,0.01915361,9.89762974,0.00639159,-0.00852212,0.00745685
1704716171522769,0.16759412,0.02394202,9.90720654,0.00426106,-0.01278317,0.00106526
1704716171524539,0.16759412,0.02394202,9.89762974,0.00852212,0.00319579,-0.00106526
1704716171526542,0.15801731,0.03351882,9.90720654,0.01278317,0.00639159,-0.00106526
1704716171528541,0.15801731,0.01436521,9.90720654,0.00213053,0.00000000,0.00213053
1704716171530532,0.16280572,0.02394202,9.90241814,-0.01278317,0.00639159,-0.01278317
1704716171532541,0.14844051,0.02873042,9.91678333,-0.01384844,0.00639159,-0.00745685
1704716171534547,0.16280572,0.01436521,9.91199493,-0.00852212,0.00000000,0.00106526
1704716171536555,0.15322891,0.03830723,9.91678333,-0.00532632,0.00213053,0.00000000
1704716171538579,0.14844051,0.02394202,9.92636013,-0.00639159,0.01278317,0.00000000
1704716171540549,0.16759412,0.02873042,9.92157173,-0.00745685,0.00958738,0.00213053
1704716171542569,0.14844051,0.03351882,9.93114853,-0.00958738,0.00639159,0.00213053
1704716171544569,0.16759412,0.01436521,9.93593693,-0.00852212,0.01171791,0.00000000
1704716171546596,0.15801731,0.02873042,9.93114853,0.00000000,0.00213053,-0.00106526
1704716171548547,0.14844051,0.01915361,9.94072533,0.00213053,0.00532632,0.00213053
1704716171550536,0.17238252,0.01915361,9.94072533,-0.00852212,0.00745685,0.00852212
1704716171552535,0.14844051,0.02394202,9.93593693,-0.01384844,0.00319579,0.00000000
1704716171554568,0.16280572,0.01915361,9.94551373,-0.01384844,0.00426106,-0.00852212
1704716171556560,0.15801731,0.01915361,9.93593693,-0.01917476,0.00639159,-0.00639159
1704716171558581,0.14844051,0.01436521,9.94072533,-0.01384844,-0.00532632,-0.00745685
1704716171560532,0.16759412,0.01436521,9.94551373,-0.01810949,-0.00426106,-0.00745685
1704716171562551,0.15322891,0.00478840,9.93114853,-0.02663161,0.00745685,-0.00639159
1704716171564712,0.16280572,0.01436521,9.94551373,-0.02450108,-0.00213053,-0.01065264
1704716171566454,0.15801731,0.00000000,9.93593693,-0.01278317,-0.00319579,-0.01278317
1704716171568534,0.15801731,0.00478840,9.93114853,-0.01171791,0.00532632,-0.01384844
1704716171570547,0.16280572,0.01436521,9.94072533,-0.00745685,0.00426106,-0.01065264
1704716171572763,0.16280572,0.00000000,9.92157173,-0.00319579,0.00532632,-0.00852212
1704716171574543,0.16280572,0.01915361,9.92636013,0.00319579,0.01491370,-0.00639159
1704716171576555,0.15801731,0.01436521,9.92636013,0.00639159,0.01704423,-0.01065264
1704716171578543,0.16280572,0.01436521,9.91678333,0.01065264,0.01917476,0.00000000
1704716171580563,0.15322891,0.02873042,9.92636013,0.02769688,0.03195793,0.00319579
1704716171582553,0.15801731,0.00957681,9.92157173,0.03621899,0.03728426,-0.00319579
1704716171584534,0.16280572,0.02873042,9.92157173,0.02982740,0.03834952,-0.00426106
1704716171586523,0.13886370,0.02873042,9.93114853,0.02982740,0.04154531,0.00213053
1704716171588576,0.15801731,0.01915361,9.92636013,0.04474111,0.05006743,-0.00213053
1704716171590534,0.13886370,0.03830723,9.93114853,0.05965481,0.06072007,-0.00639159
1704716171592521,0.13886370,0.02873042,9.94072533,0.05432849,0.06391586,-0.00532632
1704716171594543,0.15322891,0.03830723,9.94072533,0.05645901,0.06711166,-0.00426106
1704716171596582,0.11971009,0.04309563,9.95030212,0.08202536,0.06711166,-0.00319579
1704716171598555,0.14365210,0.03830723,9.95509052,0.10120012,0.07563377,-0.00106526
1704716171600535,0.12928689,0.05267244,9.95030212,0.09374327,0.07776430,0.00213053
1704716171602519,0.12449849,0.05267244,9.95987892,0.09693906,0.07776430,-0.00532632
1704716171604524,0.14844051,0.05267244,9.95987892,0.10865697,0.08202536,-0.01171791
1704716171606592,0.11971009,0.06224924,9.95987892,0.11504856,0.08415589,-0.00958738
1704716171608589,0.14365210,0.06703765,9.96466732,0.10972223,0.08522116,-0.01171791
1704716171610543,0.13407530,0.07182605,9.95987892,0.12144014,0.07669904,-0.01065264
1704716171612629,0.11971009,0.06703765,9.96466732,0.13209279,0.08309063,-0.01384844
1704716171614565,0.14365210,0.07182605,9.97424412,0.12463594,0.08309063,-0.01810949
1704716171616541,0.12928689,0.06703765,9.96466732,0.11824435,0.06924219,-0.01597897
1704716171618539,0.13886370,0.07182605,9.97903252,0.12357067,0.06285060,-0.00958738
1704716171620533,0.13886370,0.06224924,9.97424412,0.12570120,0.05965481,-0.01491370
1704716171622573,0.13407530,0.06703765,9.97424412,0.10759171,0.06924219,-0.01065264
1704716171624542,0.14844051,0.07182605,9.98382092,0.10652644,0.06072007,-0.00213053
1704716171626553,0.14365210,0.05267244,9.97424412,0.11930962,0.05326322,-0.00745685
1704716171628553,0.14844051,0.06224924,9.98860931,0.11291803,0.05006743,-0.01171791
1704716171630541,0.14365210,0.05267244,9.98860931,0.10333065,0.05752428,-0.00106526
1704716171632556,0.15322891,0.04788403,9.98382092,0.10333065,0.05432849,0.00958738
1704716171634581,0.14844051,0.05267244,9.99818611,0.10226539,0.04900216,-0.00426106
1704716171636536,0.15801731,0.02873042,9.98860931,0.07776430,0.04580637,-0.00213053
1704716171638581,0.15801731,0.04309563,10.00297451,0.06498113,0.03941479,-0.00639159
1704716171640561,0.15322891,0.02394202,10.00297451,0.07137272,0.02450108,0.00319579
1704716171642546,0.17717093,0.00957681,9.99818611,0.06817693,0.03089267,-0.00426106
1704716171644538,0.16280572,0.01915361,10.00297451,0.05752428,0.02556635,0.00319579
1704716171646598,0.17238252,-0.00478840,10.00297451,0.05113269,0.01597897,0.00213053
1704716171648595,0.18195933,0.00000000,10.00776291,0.05219796,0.00532632,-0.00319579
1704716171650516,0.16759412,-0.00478840,10.00776291,0.04687164,0.00958738,-0.00639159
1704716171652549,0.19632454,-0.01436521,10.00776291,0.04261058,0.00000000,-0.00213053
1704716171654800,0.17238252,-0.00957681,10.00297451,0.03941479,-0.00532632,-0.00319579
1704716171656578,0.20111294,-0.01915361,10.00776291,0.03834952,-0.00319579,-0.00532632
1704716171658566,0.19153613,-0.01915361,10.00297451,0.03515373,-0.00319579,-0.00426106
1704716171660534,0.17238252,-0.01915361,9.99818611,0.03408846,-0.00639159,0.00106526
1704716171662571,0.20111294,-0.02394202,9.99818611,0.03834952,-0.01278317,0.00213053
1704716171664595,0.18195933,-0.02394202,9.98382092,0.02982740,-0.00639159,-0.00745685
1704716171666568,0.19153613,-0.01915361,9.98860931,0.01810949,-0.00426106,-0.00106526
1704716171668529,0.20111294,-0.02394202,9.98382092,0.02663161,-0.00426106,0.00106526
1704716171670531,0.18195933,-0.01915361,9.96945572,0.04261058,-0.01704423,0.00532632
1704716171672563,0.19632454,-0.01436521,9.97424412,0.03728426,-0.01917476,0.00852212
1704716171674565,0.17717093,-0.01915361,9.95509052,0.02237055,-0.01384844,0.01597897
1704716171676538,0.18195933,-0.00478840,9.95987892,0.02343582,-0.00639159,0.01384844
1704716171678560,0.17717093,-0.01436521,9.95030212,0.03089267,-0.00213053,0.01171791
1704716171680532,0.17238252,-0.01436521,9.93114853,0.02769688,0.00213053,0.01171791
1704716171682544,0.17238252,0.00478840,9.94072533,0.02450108,0.00213053,0.00532632
1704716171684586,0.15801731,-0.01915361,9.92157173,0.01384844,0.00639159,0.00532632
1704716171686514,0.16280572,-0.00478840,9.91678333,0.00852212,0.01597897,0.00000000
1704716171688587,0.14844051,-0.00957681,9.91199493,0.00532632,0.00213053,-0.00532632
1704716171690535,0.15322891,-0.01915361,9.89284134,0.00426106,0.00213053,-0.00426106
1704716171692665,0.14844051,-0.00478840,9.89762974,0.00213053,0.01491370,-0.01065264
1704716171694531,0.15322891,-0.02394202,9.87368774,0.00106526,0.02876214,-0.00319579
1704716171696577,0.15801731,-0.01436521,9.87368774,0.00000000,0.02876214,-0.00319579
1704716171698571,0.13407530,-0.01915361,9.86889935,-0.00745685,0.02556635,-0.00106526
1704716171700543,0.14365210,-0.03351882,9.85453415,-0.01491370,0.03195793,-0.00958738
1704716171702538,0.13886370,-0.01436521,9.85453415,-0.01491370,0.04367584,-0.00426106
1704716171704595,0.11971009,-0.02873042,9.84495735,-0.00639159,0.04367584,-0.00532632
1704716171706617,0.15322891,-0.01915361,9.83538055,0.00000000,0.03515373,-0.00639159
1704716171708557,0.11971009,-0.01915361,9.82580376,-0.00745685,0.04474111,-0.00639159
1704716171710513,0.13407530,-0.01915361,9.82101536,-0.01917476,0.04900216,0.00213053
1704716171712540,0.13886370,-0.00957681,9.81622696,-0.01491370,0.03621899,-0.00106526
1704716171714596,0.11013328,-0.01436521,9.80665016,-0.01384844,0.03302320,-0.00213053
1704716171716607,0.14365210,-0.00957681,9.80186176,-0.01065264,0.04261058,-0.00319579
1704716171718559,0.11971009,-0.00957681,9.78749657,-0.00852212,0.04367584,0.00213053
1704716171720543,0.13407530,-0.00478840,9.79228497,-0.00639159,0.03408846,-0.00319579
1704716171722567,0.14365210,-0.00478840,9.78270817,-0.00319579,0.03621899,-0.00319579
1704716171724591,0.11971009,-0.00957681,9.77313137,-0.00958738,0.04580637,-0.01171791
1704716171726554,0.15322891,0.00478840,9.77791977,-0.01917476,0.04687164,-0.00532632
1704716171728547,0.13886370,-0.00478840,9.75397778,-0.00745685,0.03834952,-0.00532632
1704716171730564,0.14365210,0.00957681,9.75397778,0.00745685,0.03621899,0.00319579
1704716171732563,0.15322891,0.00478840,9.75397778,0.00213053,0.04793690,-0.00213053
1704716171734556,0.13886370,0.00000000,9.73482418,-0.00319579,0.04367584,0.00213053
1704716171736710,0.15801731,0.01915361,9.74440098,0.00426106,0.03941479,-0.00532632
1704716171738576,0.14365210,-0.00478840,9.71567059,0.00213053,0.04474111,-0.00639159
1704716171740571,0.15322891,0.00957681,9.72045898,0.00000000,0.04154531,-0.01065264
1704716171742547,0.15801731,0.00957681,9.73003578,0.00319579,0.03302320,0.00106526
1704716171744550,0.15322891,-0.00957681,9.71088219,0.01171791,0.03302320,-0.00426106
1704716171746581,0.16280572,0.01436521,9.72045898,0.00852212,0.04154531,-0.00745685
1704716171748611,0.15322891,-0.00478840,9.70609379,0.00213053,0.04048005,-0.00958738
1704716171750517,0.17238252,0.00478840,9.70130539,0.00213053,0.02982740,-0.00106526
1704716171752525,0.16280572,0.00957681,9.71567059,0.00426106,0.02769688,-0.00106526
1704716171754588,0.16759412,-0.01436521,9.70130539,0.00745685,0.03408846,-0.00639159
1704716171756625,0.17238252,0.00957681,9.70130539,0.00213053,0.03515373,-0.00106526
1704716171758563,0.15801731,-0.00957681,9.70130539,-0.00319579,0.02769688,0.00106526
1704716171760543,0.18674773,-0.00478840,9.69172859,-0.00532632,0.02982740,-0.00532632
1704716171762616,0.16759412,0.00478840,9.69651699,-0.00213053,0.03941479,-0.00319579
1704716171764615,0.16759412,-0.00957681,9.69651699,0.00532632,0.03408846,-0.00213053
1704716171766562,0.17717093,0.00957681,9.69651699,0.00639159,0.02130529,-0.00639159
1704716171768536,0.15322891,0.00000000,9.69651699,0.00213053,0.03089267,-0.00426106
1704716171770514,0.18195933,0.00478840,9.69172859,-0.00319579,0.03728426,0.00000000
1704716171772576,0.16280572,0.00957681,9.68694019,-0.00532632,0.04261058,-0.00426106
1704716171774732,0.16280572,0.00957681,9.69651699,-0.01171791,0.03621899,-0.00426106
1704716171776558,0.17717093,0.01436521,9.69651699,-0.00426106,0.03941479,-0.00213053
1704716171778579,0.14844051,0.01436521,9.69172859,0.00319579,0.04367584,0.00213053
1704716171780551,0.17717093,0.02394202,9.69651699,0.00639159,0.04687164,0.00213053
1704716171782544,0.16759412,0.01915361,9.69172859,0.00852212,0.04474111,0.00000000
1704716171785449,0.17238252,0.02873042,9.70609379,0.00319579,0.04048005,0.00532632
1704716171787390,0.15322891,0.01915361,9.69651699,0.01065264,0.04367584,-0.00319579
1704716171789394,0.16759412,0.03351882,9.70609379,0.00319579,0.03515373,-0.00106526
1704716171791341,0.16280572,0.01915361,9.70130539,-0.00319579,0.03408846,-0.00319579
1704716171795073,0.16280572,0.03351882,9.71088219,0.01171791,0.04154531,-0.00852212
1704716171796611,0.16280572,0.02873042,9.71088219,0.01065264,0.04261058,-0.00532632
1704716171798576,0.15801731,0.00957681,9.69651699,-0.00213053,0.03195793,-0.00852212
1704716171800548,0.16280572,0.02873042,9.70609379,-0.01917476,0.03408846,-0.01171791
1704716171802533,0.15801731,0.00957681,9.71088219,-0.01278317,0.03408846,-0.01491370
1704716171804598,0.16280572,0.00478840,9.70609379,0.00213053,0.02876214,-0.00639159
1704716171806499,0.15801731,0.01915361,9.72045898,0.00000000,0.02769688,-0.01171791
1704716171808546,0.16280572,-0.00957681,9.71567059,-0.01065264,0.02130529,-0.01065264
1704716171810523,0.16759412,0.00478840,9.72524738,-0.00639159,0.01597897,-0.01171791
1704716171812627,0.15322891,-0.00478840,9.73482418,-0.00213053,0.01704423,-0.00745685
1704716171814571,0.17238252,-0.00957681,9.73003578,0.00000000,0.01065264,-0.00852212
1704716171816590,0.15801731,0.00478840,9.73961258,-0.00106526,0.00639159,-0.00106526
1704716171818546,0.16280572,-0.01915361,9.74440098,-0.00639159,0.00319579,0.00000000
1704716171820533,0.17238252,-0.00957681,9.74918938,-0.01278317,0.00106526,-0.00532632
1704716171822564,0.15801731,-0.01436521,9.75397778,-0.00639159,-0.00426106,-0.00958738
1704716171824558,0.17717093,-0.02394202,9.75397778,0.00958738,-0.00213053,-0.00426106
1704716171826541,0.15801731,-0.01436521,9.75397778,-0.00106526,-0.00852212,-0.00213053
1704716171828548,0.16280572,-0.01915361,9.76834297,-0.01810949,-0.00958738,-0.00319579
1704716171830558,0.17238252,-0.01915361,9.76834297,-0.01810949,-0.00319579,-0.00532632
1704716171832563,0.14844051,-0.01436521,9.76355457,-0.00106526,0.00106526,0.00319579
1704716171834552,0.16759412,-0.01436521,9.76834297,-0.00426106,-0.01278317,-0.00426106
1704716171836541,0.14844051,-0.01436521,9.76834297,-0.00426106,-0.01278317,-0.00106526
1704716171838602,0.13886370,-0.01436521,9.77791977,-0.00532632,-0.00106526,0.00213053
1704716171840537,0.15322891,-0.01436521,9.77791977,-0.00532632,0.00639159,0.00000000
1704716171842527,0.13886370,-0.01436521,9.76834297,0.00000000,-0.00532632,-0.00213053
1704716171844567,0.14844051,-0.00957681,9.78270817,0.00532632,-0.01917476,0.00639159
1704716171846598,0.13886370,-0.01915361,9.77313137,0.00106526,-0.01065264,-0.00319579
1704716171848616,0.13886370,-0.01436521,9.78270817,-0.00319579,-0.00106526,-0.00852212
1704716171850556,0.14365210,-0.00957681,9.78270817,-0.00532632,-0.00426106,0.00532632
1704716171852683,0.13886370,-0.01915361,9.76834297,-0.01704423,-0.01171791,0.00745685
1704716171854569,0.14365210,-0.00478840,9.77791977,-0.01597897,-0.00745685,-0.00213053
1704716171856732,0.13886370,-0.01915361,9.77313137,-0.01597897,-0.00532632,-0.00426106
1704716171858563,0.14365210,-0.01436521,9.76834297,-0.02556635,-0.00852212,0.00213053
1704716171860510,0.13886370,-0.00478840,9.77313137,-0.03515373,-0.01704423,-0.00106526
1704716171862536,0.14365210,-0.02394202,9.75876617,-0.03834952,-0.01491370,-0.00426106
1704716171864623,0.14844051,0.00000000,9.75876617,-0.04154531,-0.01278317,-0.00213053
1704716171866644,0.13407530,-0.00957681,9.75876617,-0.03621899,-0.00426106,0.00000000
1704716171868558,0.15322891,-0.00957681,9.74918938,-0.02769688,-0.00532632,-0.00958738
1704716171870603,0.13407530,0.00000000,9.74918938,-0.02982740,-0.00106526,-0.01704423
1704716171872576,0.14365210,-0.00957681,9.73961258,-0.03408846,0.00106526,-0.01384844
1704716171874672,0.15322891,0.00478840,9.73482418,-0.03408846,0.00639159,-0.00639159
1704716171876555,0.12449849,0.00000000,9.73961258,-0.02663161,0.00852212,-0.01065264
1704716171878565,0.13407530,-0.00478840,9.73961258,-0.02556635,0.01278317,-0.00745685
1704716171880569,0.14844051,0.00478840,9.73482418,-0.02130529,0.01810949,-0.00426106
1704716171882545,0.11971009,0.00957681,9.73003578,-0.02237055,0.02663161,-0.00106526
1704716171884535,0.14844051,0.01915361,9.72524738,-0.01491370,0.04048005,-0.00745685
1704716171886549,0.13407530,0.02394202,9.72045898,-0.00852212,0.04367584,0.00106526
1704716171888634,0.11971009,0.01915361,9.73003578,-0.00852212,0.05006743,0.00213053
1704716171890528,0.11971009,0.02873042,9.72045898,-0.00745685,0.04687164,0.00745685
1704716171892561,0.10534488,0.03351882,9.72045898,0.00319579,0.05113269,0.00532632
1704716171894718,0.12449849,0.03351882,9.73482418,0.00852212,0.05965481,0.00639159
1704716171896603,0.09576806,0.03351882,9.71567059,-0.00213053,0.08309063,0.00319579
1704716171898575,0.09576806,0.03830723,9.72524738,-0.00532632,0.08309063,0.00426106
1704716171900538,0.11971009,0.03351882,9.73961258,0.02556635,0.08522116,0.00319579
1704716171902528,0.09097967,0.03351882,9.72524738,0.03302320,0.09693906,0.00532632
1704716171904569,0.10534488,0.04309563,9.74440098,0.01917476,0.10652644,0.00106526
1704716171906579,0.10055647,0.03351882,9.74440098,0.00745685,0.10865697,0.00745685
1704716171908573,0.08619126,0.03830723,9.74440098,0.02024002,0.10972223,0.00532632
1704716171910532,0.10055647,0.03830723,9.76834297,0.03834952,0.11398330,0.00000000
1704716171912567,0.08140286,0.02873042,9.75876617,0.04580637,0.11824435,-0.00106526
1704716171914635,0.09576806,0.04788403,9.77791977,0.04474111,0.11611383,0.00213053
1704716171916600,0.09097967,0.03830723,9.78749657,0.04261058,0.11717909,-0.00213053
1704716171918573,0.08619126,0.03351882,9.78270817,0.04048005,0.12144014,-0.01491370
1704716171920583,0.09097967,0.04788403,9.80665016,0.03728426,0.10759171,-0.00532632
1704716171922571,0.08619126,0.02873042,9.80186176,0.03515373,0.08948221,-0.00639159
1704716171924587,0.10055647,0.04309563,9.80186176,0.04474111,0.09693906,-0.00745685
1704716171926553,0.09097967,0.03351882,9.81622696,0.04474111,0.10120012,-0.00426106
1704716171928578,0.11492168,0.03351882,9.81622696,0.03515373,0.09161274,0.00319579
1704716171930559,0.11013328,0.04309563,9.82580376,0.03728426,0.08522116,0.00106526
1704716171932715,0.10534488,0.01915361,9.82580376,0.04261058,0.08522116,-0.00319579
1704716171934574,0.12449849,0.04309563,9.82101536,0.05113269,0.08096009,0.00958738
1704716171936565,0.11492168,0.03351882,9.82101536,0.05219796,0.07669904,0.00106526
1704716171938611,0.13407530,0.01915361,9.82101536,0.04900216,0.06498113,-0.00213053
1704716171940537,0.13886370,0.03351882,9.82580376,0.05006743,0.06072007,-0.00319579
1704716171942567,0.12449849,0.02394202,9.83059216,0.04793690,0.06711166,0.00106526
1704716171944538,0.15801731,0.02394202,9.83059216,0.04154531,0.05539375,-0.00106526
1704716171946591,0.13407530,0.02873042,9.82580376,0.04261058,0.04367584,-0.00852212
1704716171948586,0.16759412,0.01915361,9.84016895,0.04367584,0.04793690,-0.00106526
1704716171950529,0.13886370,0.02394202,9.83059216,0.04687164,0.04687164,0.00213053
1704716171952528,0.15322891,0.01915361,9.84016895,0.04154531,0.03515373,0.00745685
1704716171954699,0.16280572,0.01915361,9.83538055,0.03834952,0.03195793,0.00213053
1704716171956580,0.14365210,0.01436521,9.83059216,0.02024002,0.02769688,0.00106526
1704716171958528,0.17717093,0.00957681,9.84974575,0.01917476,0.02024002,-0.00319579
1704716171960524,0.15801731,0.00000000,9.83538055,0.01704423,0.01704423,-0.00639159
1704716171962530,0.16759412,0.00957681,9.84974575,0.00852212,0.01171791,-0.00532632
1704716171964750,0.17238252,-0.00478840,9.85453415,0.00426106,0.00000000,-0.00745685
1704716171966577,0.15801731,-0.00478840,9.84016895,0.00532632,0.00319579,-0.00639159
1704716171968680,0.18195933,0.00000000,9.85932255,0.00745685,-0.00213053,-0.00745685
1704716171970654,0.16759412,-0.01915361,9.84495735,-0.00106526,0.00000000,-0.01278317
1704716171972693,0.17238252,-0.00478840,9.84974575,0.00000000,-0.00745685,-0.01065264
1704716171974566,0.17238252,-0.01915361,9.85932255,0.00319579,-0.00639159,-0.00106526
1704716171976575,0.16280572,-0.01915361,9.84016895,0.00106526,-0.00958738,-0.00426106
1704716171978566,0.17238252,-0.00478840,9.85932255,-0.00958738,-0.00745685,-0.00426106
1704716171980556,0.16759412,-0.02873042,9.84495735,-0.01810949,-0.00319579,-0.00639159
1704716171982557,0.17717093,-0.00478840,9.84016895,-0.00639159,-0.01278317,-0.00426106
1704716171984573,0.16759412,-0.01436521,9.84974575,0.00532632,-0.01065264,-0.00639159
1704716171986585,0.18195933,-0.02394202,9.82580376,0.00213053,-0.00852212,-0.00213053
1704716171988597,0.17717093,0.00000000,9.83059216,-0.00745685,-0.00426106,-0.00213053
1704716171990647,0.16759412,-0.02873042,9.82580376,-0.00319579,-0.01384844,0.00426106
1704716171992565,0.18195933,-0.01436521,9.81143856,0.00958738,-0.01278317,0.00106526
1704716171994548,0.15801731,-0.01436521,9.81143856,0.00426106,0.00000000,0.00426106
1704716171996562,0.17238252,-0.02873042,9.79707336,-0.00319579,-0.01065264,0.00426106
1704716171998595,0.17238252,-0.00478840,9.78749657,-0.00213053,-0.01278317,0.00532632
1704716172000523,0.15322891,-0.01915361,9.78749657,0.00319579,-0.01171791,0.00852212
1704716172002530,0.17717093,-0.01436521,9.77313137,-0.00319579,-0.00745685,0.00000000
1704716172004582,0.14844051,-0.00478840,9.76355457,-0.00745685,-0.00639159,0.00106526
1704716172006574,0.15801731,-0.01915361,9.75876617,0.00000000,-0.00745685,-0.00106526
1704716172008558,0.16759412,-0.00478840,9.74440098,0.00745685,-0.00106526,0.00319579
1704716172010549,0.13407530,-0.00957681,9.73961258,0.00745685,0.00426106,-0.00213053
1704716172012565,0.16280572,-0.00957681,9.73961258,0.00958738,0.00745685,0.00213053
1704716172014708,0.13407530,-0.00478840,9.72045898,0.01278317,0.00745685,0.00745685
1704716172016587,0.13407530,-0.00478840,9.72524738,0.00319579,0.01171791,0.00745685
1704716172018551,0.15322891,0.00478840,9.71567059,0.00319579,0.01384844,0.00000000
1704716172020549,0.11971009,0.00000000,9.70130539,0.00639159,0.01278317,0.00426106
1704716172022576,0.14844051,0.00957681,9.71567059,0.00852212,0.01597897,0.01065264
1704716172024567,0.12928689,0.00000000,9.69172859,0.00639159,0.02450108,0.00532632
1704716172026573,0.12449849,0.00957681,9.69172859,0.01065264,0.02663161,0.00745685
1704716172028528,0.14365210,0.00957681,9.69651699,-0.00532632,0.02663161,0.01171791
1704716172030553,0.12449849,0.00000000,9.66778660,-0.02663161,0.03089267,0.00319579
1704716172032580,0.13886370,0.01436521,9.68215179,-0.02130529,0.02876214,0.00426106
1704716172034554,0.12928689,0.00000000,9.66778660,-0.01917476,0.02024002,0.01491370
1704716172036585,0.12449849,-0.00478840,9.65342140,-0.02556635,0.02769688,0.01065264
1704716172038592,0.13407530,0.01915361,9.65820980,-0.03515373,0.03195793,-0.00319579
1704716172040529,0.13407530,0.00000000,9.65342140,-0.02982740,0.03195793,0.00213053
1704716172042563,0.12928689,0.00478840,9.62947941,-0.03621899,0.03089267,0.00319579
1704716172044564,0.13407530,0.01915361,9.64384460,-0.04367584,0.02556635,-0.00319579
1704716172046576,0.13407530,-0.00957681,9.62469101,-0.04900216,0.02556635,-0.00213053
1704716172048716,0.14365210,0.01436521,9.61511421,-0.05219796,0.02343582,-0.00426106
1704716172050560,0.13407530,-0.01915361,9.61032581,-0.05645901,0.02024002,-0.01065264
1704716172052526,0.14365210,-0.01436521,9.59596062,-0.06072007,0.01491370,-0.00319579
1704716172054610,0.13407530,-0.01436521,9.60553741,-0.07030746,0.00639159,-0.00532632
1704716172056591,0.13886370,-0.02873042,9.60074902,-0.07456851,0.01171791,-0.01065264
1704716172058667,0.14844051,-0.01436521,9.57680702,-0.06285060,0.01384844,-0.01810949
1704716172060547,0.13886370,-0.03351882,9.58159542,-0.06711166,0.01917476,-0.00958738
1704716172062542,0.14844051,-0.03351882,9.57201862,-0.06711166,0.01384844,-0.01065264
1704716172064599,0.13886370,-0.01915361,9.55286503,-0.06604639,0.01171791,-0.01278317
1704716172066623,0.13407530,-0.03830723,9.57201862,-0.06285060,0.01917476,-0.00319579
1704716172068572,0.14844051,-0.03351882,9.55765343,-0.07243798,0.02876214,-0.00213053
1704716172070546,0.12449849,-0.02873042,9.54807663,-0.07669904,0.02876214,-0.00319579
1704716172072606,0.14365210,-0.03351882,9.56244183,-0.06817693,0.02982740,0.00106526
1704716172074601,0.13886370,-0.02394202,9.53849983,-0.06072007,0.03941479,0.00639159
1704716172076548,0.11971009,-0.02873042,9.54807663,-0.05858954,0.03515373,0.00532632
1704716172078549,0.13886370,-0.02394202,9.55765343,-0.04367584,0.02982740,0.00426106
1704716172080562,0.11492168,-0.01915361,9.53849983,-0.02130529,0.02769688,0.00106526
1704716172082608,0.11971009,-0.00957681,9.55286503,-0.01278317,0.03408846,0.00000000
1704716172084728,0.12928689,-0.00478840,9.54807663,-0.01384844,0.03515373,0.00532632
1704716172086536,0.11492168,0.00478840,9.55765343,-0.00852212,0.03195793,0.01491370
1704716172088702,0.12449849,0.00957681,9.56723022,-0.00426106,0.03728426,0.00958738
1704716172090531,0.11013328,0.00478840,9.54807663,0.00532632,0.04048005,0.00106526
1704716172092626,0.11492168,0.01915361,9.55286503,0.00000000,0.03941479,0.00745685
1704716172094544,0.11971009,0.01915361,9.56723022,0.00319579,0.03302320,0.00426106
1704716172096595,0.10534488,0.00957681,9.55286503,0.01491370,0.02450108,0.00213053
1704716172098578,0.11492168,0.02394202,9.58159542,0.02876214,0.02663161,0.00426106
1704716172100568,0.11013328,0.01436521,9.57201862,0.02343582,0.03195793,0.00745685
1704716172102612,0.11492168,0.02873042,9.56244183,0.02769688,0.02663161,-0.00106526
1704716172104598,0.11492168,0.02394202,9.58159542,0.03834952,0.01065264,-0.00106526
1704716172106594,0.11492168,0.02394202,9.57201862,0.03941479,0.01171791,-0.00745685
1704716172108601,0.12449849,0.04788403,9.58159542,0.03515373,0.00745685,0.00319579
1704716172110528,0.11492168,0.03351882,9.59596062,0.03089267,0.00532632,-0.00106526
1704716172112556,0.12928689,0.03830723,9.58159542,0.03302320,0.00213053,0.00745685
1704716172114606,0.12449849,0.05267244,9.59117222,0.03195793,0.00319579,-0.00213053
1704716172116592,0.12449849,0.02873042,9.60074902,0.03302320,0.00106526,0.00106526
1704716172118551,0.13407530,0.04788403,9.59596062,0.02769688,-0.00745685,0.00426106
1704716172120548,0.11971009,0.03830723,9.61511421,0.01917476,-0.01384844,0.00213053
1704716172122595,0.14365210,0.02873042,9.61032581,0.01491370,-0.00532632,-0.00213053
1704716172124576,0.12928689,0.04788403,9.60553741,0.02450108,0.00745685,0.00000000
1704716172126580,0.13407530,0.02873042,9.62947941,0.01917476,-0.00639159,-0.00213053
1704716172128582,0.14844051,0.03351882,9.61990261,0.01065264,-0.02769688,-0.00106526
1704716172130585,0.11971009,0.03351882,9.62947941,0.00532632,-0.02343582,-0.00213053
1704716172132580,0.14844051,0.01915361,9.64384460,0.00532632,-0.01065264,0.00213053
1704716172134532,0.13886370,0.02873042,9.62469101,-0.00426106,0.00532632,0.00319579
1704716172136547,0.14844051,0.01436521,9.66778660,-0.01491370,-0.01384844,-0.00745685
1704716172138613,0.14844051,0.01436521,9.66299820,-0.01065264,-0.01278317,-0.00745685
1704716172140552,0.11971009,0.01436521,9.64863300,-0.00745685,-0.00852212,-0.00319579
1704716172142576,0.14365210,0.00957681,9.67736340,-0.01810949,0.00213053,0.00106526
1704716172144537,0.12928689,0.00478840,9.66778660,-0.02556635,0.00106526,0.00106526
1704716172146618,0.11971009,0.00957681,9.67257500,-0.02130529,0.00639159,-0.00319579
1704716172148622,0.13407530,0.00478840,9.70609379,-0.02450108,0.01384844,-0.00106526
1704716172150621,0.11013328,-0.00478840,9.68215179,-0.02982740,0.01278317,0.00213053
1704716172152530,0.12449849,0.00478840,9.71088219,-0.02556635,0.01384844,0.00319579
1704716172154602,0.11492168,-0.01436521,9.71567059,-0.02450108,0.02450108,0.00213053
1704716172156595,0.11013328,-0.01915361,9.70130539,-0.03834952,0.03515373,-0.00852212
1704716172158592,0.11492168,-0.01915361,9.73482418,-0.04900216,0.03515373,0.00000000
1704716172160511,0.10534488,-0.03830723,9.71567059,-0.04793690,0.02556635,-0.00532632
1704716172162566,0.11492168,-0.02873042,9.71567059,-0.05219796,0.03408846,-0.00745685
1704716172164764,0.10534488,-0.04309563,9.73482418,-0.06604639,0.04048005,-0.00106526
1704716172166558,0.11013328,-0.05267244,9.71088219,-0.07456851,0.04261058,0.00532632
1704716172168534,0.11492168,-0.03830723,9.72045898,-0.07137272,0.04048005,0.00000000
1704716172170542,0.10534488,-0.06224924,9.72045898,-0.06817693,0.03728426,0.00000000
1704716172172594,0.11971009,-0.05267244,9.70609379,-0.07137272,0.03941479,0.00745685
1704716172174579,0.10534488,-0.05746084,9.71567059,-0.07350325,0.03941479,0.00532632
1704716172176569,0.11971009,-0.06224924,9.70609379,-0.06604639,0.03195793,0.00000000
1704716172178537,0.11492168,-0.04309563,9.69651699,-0.06391586,0.03834952,-0.00319579
1704716172180567,0.10534488,-0.05746084,9.70609379,-0.06711166,0.04154531,0.00639159
1704716172182566,0.12449849,-0.04788403,9.69172859,-0.07137272,0.03089267,0.00426106
1704716172184650,0.10055647,-0.04788403,9.68694019,-0.07456851,0.03195793,0.00426106
1704716172186558,0.12449849,-0.04309563,9.69172859,-0.06817693,0.04154531,0.00958738
1704716172188603,0.11492168,-0.03830723,9.67257500,-0.06072007,0.03941479,0.00852212
1704716172190549,0.10055647,-0.03830723,9.68215179,-0.04793690,0.03089267,0.00319579
1704716172192566,0.12449849,-0.02873042,9.68694019,-0.04261058,0.02982740,0.00213053
