timestamp,accel_x,accel_y,accel_z,gyro_x,gyro_y,gyro_z
1704704259674223,-0.01436521,0.00000000,9.89762974,0.01597897,-0.00213053,0.00426106
1704704259676210,-0.00957681,-0.00478840,9.89284134,0.00958738,0.00532632,0.02237055
1704704259678226,-0.01436521,-0.00957681,9.89762974,0.00745685,0.00213053,0.01491370
1704704259680183,-0.01915361,-0.00478840,9.90720654,0.01278317,-0.00532632,0.00000000
1704704259682200,-0.01436521,0.00000000,9.91199493,0.02130529,-0.00852212,-0.01065264
1704704259684214,-0.00957681,0.00000000,9.90720654,0.02450108,-0.00426106,-0.00213053
1704704259686164,-0.00478840,-0.01436521,9.89762974,0.02130529,0.00426106,0.00213053
1704704259688191,-0.00478840,-0.01436521,9.89284134,0.00745685,0.00745685,0.02024002
1704704259690241,-0.00957681,-0.01915361,9.89762974,0.00639159,0.00106526,0.02130529
1704704259692117,-0.00957681,-0.01436521,9.90241814,0.01704423,-0.00532632,0.00426106
1704704259694220,-0.00478840,-0.01915361,9.91199493,0.03302320,0.00106526,-0.01278317
1704704259696186,0.00478840,-0.02394202,9.90720654,0.03408846,0.00745685,-0.01491370
1704704259698211,0.00957681,-0.02873042,9.90720654,0.02556635,0.01065264,0.00426106
1704704259700303,0.00957681,-0.02873042,9.90720654,0.01704423,0.01065264,0.02556635
1704704259702214,0.00957681,-0.02873042,9.91199493,0.01597897,0.00639159,0.02130529
1704704259704213,0.01436521,-0.02873042,9.91678333,0.01810949,0.00426106,0.00745685
1704704259706236,0.01915361,-0.03351882,9.92157173,0.02982740,0.00426106,-0.01171791
1704704259708270,0.02394202,-0.03351882,9.92157173,0.03834952,0.01065264,-0.01704423
1704704259710318,0.02394202,-0.03830723,9.91678333,0.03515373,0.01597897,0.00319579
1704704259712184,0.02394202,-0.03830723,9.91678333,0.02130529,0.01491370,0.02556635
1704704259714221,0.02873042,-0.03830723,9.91678333,0.01597897,0.01384844,0.02663161
1704704259716233,0.02873042,-0.03830723,9.91678333,0.01597897,0.01065264,0.00106526
1704704259718217,0.02873042,-0.03830723,9.92157173,0.02876214,0.00958738,-0.01597897
1704704259720221,0.02873042,-0.03351882,9.92157173,0.03834952,0.00958738,-0.01491370
1704704259722170,0.02873042,-0.02873042,9.92157173,0.03728426,0.00958738,-0.00106526
1704704259724236,0.02873042,-0.02873042,9.91199493,0.01704423,0.01597897,0.02982740
1704704259726261,0.03351882,-0.03351882,9.90720654,0.00532632,0.01704423,0.02769688
1704704259728418,0.02873042,-0.02873042,9.90720654,0.00852212,0.00745685,0.00958738
1704704259730211,0.02394202,-0.01915361,9.91199493,0.02663161,0.00319579,-0.01810949
1704704259732203,0.01436521,-0.01436521,9.91678333,0.03302320,0.00426106,-0.01491370
1704704259734369,0.01436521,-0.00957681,9.91199493,0.03195793,0.00852212,0.00532632
1704704259736251,0.01436521,-0.00957681,9.90720654,0.00852212,0.01065264,0.02343582
1704704259738189,0.00957681,-0.01436521,9.90720654,-0.00319579,0.00745685,0.02450108
1704704259740223,0.00957681,-0.00957681,9.90720654,-0.00319579,-0.00106526,0.00852212
1704704259742199,-0.00478840,0.00000000,9.91678333,0.01384844,-0.00852212,-0.01491370
1704704259744262,-0.00478840,0.00478840,9.92157173,0.02556635,-0.00745685,-0.02237055
1704704259746179,-0.00478840,0.00957681,9.92157173,0.02450108,0.00426106,0.00532632
1704704259748237,-0.00478840,0.00478840,9.91199493,0.01171791,0.00639159,0.02024002
1704704259750242,-0.00957681,0.00000000,9.91199493,-0.00213053,0.00000000,0.02769688
1704704259752172,-0.01915361,0.00000000,9.91678333,-0.00532632,-0.01065264,0.01384844
1704704259754201,-0.01915361,0.00957681,9.92157173,0.01171791,-0.01384844,-0.01597897
1704704259756218,-0.01915361,0.00957681,9.92157173,0.02876214,-0.00745685,-0.02024002
1704704259758227,-0.01436521,0.00957681,9.92157173,0.03515373,0.00213053,-0.00745685
1704704259760243,-0.01436521,0.00000000,9.91678333,0.01597897,0.00532632,0.02663161
1704704259762204,-0.01915361,0.00000000,9.91678333,0.00106526,-0.00106526,0.03408846
1704704259764234,-0.01915361,-0.00478840,9.91678333,-0.00319579,-0.00852212,0.01171791
1704704259766302,-0.01915361,-0.00478840,9.91678333,0.01278317,-0.00745685,-0.01384844
1704704259768265,-0.00957681,-0.00478840,9.91678333,0.03195793,0.00213053,-0.02130529
1704704259770128,-0.00478840,-0.00478840,9.91199493,0.03195793,0.01065264,-0.00639159
1704704259772212,-0.00478840,-0.00957681,9.90720654,0.02130529,0.00958738,0.02556635
1704704259774287,-0.00478840,-0.01436521,9.90720654,0.01065264,0.00532632,0.03302320
1704704259776282,0.00000000,-0.01915361,9.90720654,-0.01597897,-0.00106526,0.01491370
1704704259778210,0.00957681,-0.01915361,9.90720654,-0.06498113,0.00106526,-0.00213053
1704704259780227,0.01436521,-0.01915361,9.91678333,-0.05432849,0.01278317,0.00000000
1704704259782226,0.01915361,-0.01915361,9.93114853,-0.02024002,0.02343582,0.02876214
1704704259784229,0.02394202,-0.01915361,9.94072533,0.02556635,0.02876214,0.05113269
1704704259786231,0.02873042,-0.02394202,9.94072533,0.02769688,0.02663161,0.02663161
1704704259788208,0.03351882,-0.03351882,9.93593693,-0.02130529,0.02982740,-0.00213053
1704704259790412,0.05267244,-0.06224924,9.92636013,-0.02450108,0.04261058,-0.03728426
1704704259792237,0.07182605,-0.06224924,9.95030212,-0.01491370,0.06817693,-0.02450108
1704704259794225,0.07182605,-0.05746084,9.96466732,-0.05006743,0.06817693,0.00639159
1704704259796237,0.06703765,-0.05267244,9.98382092,0.00852212,0.06498113,0.07030746
1704704259798378,0.06703765,-0.08140286,10.00297451,0.06711166,0.04793690,0.10652644
1704704259800246,0.07661445,-0.11013328,10.02691650,0.05432849,0.03941479,0.11078750
1704704259802219,0.07661445,-0.10534488,10.02212811,0.06285060,0.02556635,0.10652644
1704704259804188,0.06224924,-0.11013328,10.01255131,0.05113269,-0.01065264,0.10652644
1704704259806238,0.03830723,-0.12928689,10.01733971,0.08096009,-0.04474111,0.09587380
1704704259808284,0.02394202,-0.12449849,10.01255131,0.08309063,-0.05965481,0.05113269
1704704259810200,0.00000000,-0.11971009,9.98382092,0.05752428,-0.08735169,0.01278317
1704704259812202,-0.03351882,-0.12449849,9.99339771,0.04793690,-0.14487596,-0.00213053
1704704259814221,-0.05746084,-0.12449849,10.01733971,0.02450108,-0.16298546,-0.03515373
1704704259816492,-0.08140286,-0.13407530,10.00776291,-0.02876214,-0.18642128,-0.06498113
1704704259818240,-0.11492168,-0.11971009,10.01733971,-0.08628642,-0.27590349,-0.05752428
1704704259820230,-0.12928689,-0.11971009,10.03170490,-0.09161274,-0.29720879,-0.06391586
1704704259822215,-0.14844051,-0.12449849,10.03649330,-0.07882957,-0.29720879,-0.07882957
1704704259824255,-0.15322891,-0.10055647,10.03649330,-0.11291803,-0.30253509,-0.10226539
1704704259826247,-0.17717093,-0.09097967,10.05085850,-0.13635385,-0.33875409,-0.08948221
1704704259828250,-0.18674773,-0.07661445,10.07001209,-0.11611383,-0.36645097,-0.08948221
1704704259830186,-0.19153613,-0.05267244,10.08916569,-0.09054748,-0.34940675,-0.08309063
1704704259832211,-0.22026655,-0.05746084,10.09874249,-0.10439591,-0.33555830,-0.07776430
1704704259834262,-0.22505496,-0.02394202,10.10353088,-0.13954964,-0.33129725,-0.06178534
1704704259836190,-0.24899697,0.00000000,10.14662647,-0.11291803,-0.32277513,-0.02769688
1704704259838220,-0.27293900,-0.00957681,10.18014526,-0.10865697,-0.27164242,-0.02024002
1704704259840202,-0.27772740,0.02394202,10.18972206,-0.14274544,-0.27377295,-0.01810949
1704704259842264,-0.30645782,0.04309563,10.23281765,-0.15765914,-0.27270770,-0.00319579
1704704259844259,-0.31603462,0.03830723,10.24718285,-0.13528858,-0.23861924,-0.00213053
1704704259846214,-0.31603462,0.06224924,10.22324085,-0.14594123,-0.21305288,0.00852212
1704704259848238,-0.32561144,0.06703765,10.21845245,-0.16298546,-0.22796659,0.00426106
1704704259850254,-0.31603462,0.07182605,10.15620327,-0.14807175,-0.24074976,0.01278317
1704704259852224,-0.31603462,0.07661445,10.13226128,-0.12783173,-0.20026971,0.00426106
1704704259854184,-0.31124622,0.07661445,10.10353088,-0.13848437,-0.17044231,-0.00532632
1704704259856339,-0.27772740,0.08619126,10.01255131,-0.14487596,-0.14487596,-0.00319579
1704704259858268,-0.27772740,0.09097967,9.99818611,-0.13315806,-0.10333065,0.00106526
1704704259860410,-0.26815060,0.08619126,9.97903252,-0.11185277,-0.06391586,0.00852212
1704704259862179,-0.23942018,0.07661445,9.92636013,-0.10120012,-0.03408846,0.01597897
1704704259864262,-0.22026655,0.10055647,9.88326454,-0.10439591,0.02663161,0.02237055
1704704259866263,-0.21068975,0.08619126,9.85453415,-0.09374327,0.06711166,0.03621899
1704704259868227,-0.19153613,0.07661445,9.79228497,-0.06072007,0.09693906,0.04261058
1704704259870238,-0.17238252,0.09576806,9.73961258,-0.05219796,0.13209279,0.03515373
1704704259872214,-0.16759412,0.08140286,9.69651699,-0.04793690,0.14807175,0.04367584
1704704259874251,-0.15322891,0.07182605,9.61990261,-0.02982740,0.18642128,0.04580637
1704704259876247,-0.13407530,0.09097967,9.55286503,0.00958738,0.22157501,0.04048005
1704704259878321,-0.12928689,0.07661445,9.51455784,0.04154531,0.25672874,0.04261058
1704704259880207,-0.11013328,0.06703765,9.46188545,0.02876214,0.29081720,0.04793690
1704704259882307,-0.09097967,0.07661445,9.43315506,0.05219796,0.31105721,0.05113269
1704704259884281,-0.07661445,0.06224924,9.42357826,0.09906960,0.35366780,0.05858954
1704704259886336,-0.05746084,0.05267244,9.41400146,0.10972223,0.40266997,0.06285060
1704704259888202,-0.02394202,0.05267244,9.43794346,0.12037488,0.41012681,0.06072007
1704704259890248,0.00957681,0.04309563,9.48582745,0.15020229,0.42610577,0.04474111
1704704259892155,0.04788403,0.03351882,9.52892303,0.19600865,0.42610577,0.04793690
1704704259894218,0.12928689,0.01915361,9.65820980,0.20666130,0.40373522,0.03089267
1704704259896331,0.15322891,0.00957681,9.70609379,0.21837921,0.39201730,0.02663161
1704704259898329,0.21068975,-0.00478840,9.77791977,0.24181503,0.37923414,0.01704423
1704704259900258,0.29688102,-0.02873042,9.88326454,0.25992453,0.35473305,0.01597897
1704704259902201,0.31603462,-0.03351882,9.91678333,0.24820662,0.34514567,0.01278317
1704704259904317,0.35913026,-0.05267244,9.94072533,0.24714135,0.33023196,0.01171791
1704704259906220,0.39743748,-0.06703765,9.95030212,0.27164242,0.33236250,0.00106526
1704704259908270,0.42616791,-0.07661445,9.96466732,0.27803403,0.32490566,0.00532632
1704704259910253,0.45968673,-0.08619126,9.96945572,0.27803403,0.29507825,-0.00426106
1704704259912194,0.50278234,-0.11013328,9.99339771,0.27164242,0.25033715,-0.00213053
1704704259914214,0.54108959,-0.14365210,10.06043530,0.24607609,0.20133498,-0.02024002
1704704259916239,0.58418524,-0.17717093,10.11789608,0.19920444,0.14913702,-0.02024002
1704704259918286,0.63685763,-0.21068975,10.17535686,0.17470337,0.10865697,-0.02343582
1704704259920237,0.67037648,-0.24899697,10.24718285,0.16298546,0.07669904,-0.02130529
1704704259922326,0.68474168,-0.27772740,10.29506683,0.15872440,0.05539375,-0.02982740
1704704259924268,0.70389527,-0.29209262,10.29506683,0.14487596,0.06178534,-0.03515373
1704704259926338,0.68953007,-0.30645782,10.29985619,0.16405073,0.07350325,-0.01704423
1704704259928248,0.65601128,-0.31603462,10.28549004,0.17470337,0.07669904,-0.00852212
1704704259930213,0.63685763,-0.31124622,10.23760605,0.15978967,0.07243798,-0.01597897
1704704259932233,0.60333884,-0.30645782,10.19929886,0.14594123,0.06285060,-0.02556635
1704704259934250,0.55545479,-0.31124622,10.16578007,0.13954964,0.03515373,-0.03621899
1704704259936370,0.51235914,-0.29688102,10.12268448,0.13315806,0.00213053,-0.03302320
1704704259938214,0.42616791,-0.26815060,10.12747288,0.08522116,-0.02876214,-0.02876214
1704704259940237,0.39264908,-0.26815060,10.13226128,0.07137272,-0.05432849,-0.02663161
1704704259942213,0.33039984,-0.25857377,10.11789608,0.04474111,-0.07882957,-0.00532632
1704704259944229,0.28251579,-0.22984336,10.10831928,0.03408846,-0.11930962,-0.01384844
1704704259946239,0.21068975,-0.22026655,10.12268448,0.00426106,-0.14700650,-0.00852212
1704704259948244,0.16280572,-0.20590134,10.08437729,-0.02556635,-0.17257284,0.01065264
1704704259950240,0.11971009,-0.18674773,10.03649330,-0.05965481,-0.21092236,0.00426106
1704704259952218,0.06224924,-0.17717093,10.01733971,-0.08522116,-0.21837921,-0.00319579
1704704259954198,0.03351882,-0.15322891,9.95509052,-0.12676647,-0.23648870,-0.00852212
1704704259956211,-0.00957681,-0.13886370,9.90720654,-0.14807175,-0.26312032,-0.00319579
1704704259958270,-0.06224924,-0.12449849,9.92157173,-0.18002969,-0.27909929,-0.00426106
1704704259960266,-0.09576806,-0.08619126,9.91199493,-0.21411815,-0.27909929,-0.01171791
1704704259962226,-0.13407530,-0.05746084,9.90241814,-0.22477080,-0.27696875,-0.01810949
1704704259964225,-0.18195933,-0.03351882,9.94551373,-0.24501082,-0.28762141,-0.01491370
1704704259966248,-0.21068975,0.00478840,9.96945572,-0.24288028,-0.30146983,-0.01491370
1704704259968217,-0.24420857,0.04788403,9.99339771,-0.23435818,-0.32170987,-0.00958738
1704704259970250,-0.30166942,0.09576806,10.05564690,-0.23222765,-0.32810146,0.00000000
1704704259972196,-0.31124622,0.11971009,10.06522369,-0.20985709,-0.33236250,0.00319579
1704704259974298,-0.33039984,0.16759412,10.09395409,-0.19920444,-0.33449304,0.00106526
1704704259976337,-0.38786069,0.21547815,10.16578007,-0.19494340,-0.33129725,0.00426106
1704704259978219,-0.40222588,0.23463176,10.18014526,-0.19174761,-0.32703617,0.00639159
1704704259980239,-0.41659111,0.27293900,10.22324085,-0.18429075,-0.31212249,0.01810949
1704704259982229,-0.44053310,0.30166942,10.26633644,-0.18535601,-0.29507825,0.01278317
1704704259984252,-0.46926352,0.32082301,10.28070164,-0.19494340,-0.27590349,0.01171791
1704704259986230,-0.46926352,0.33518824,10.28549004,-0.21411815,-0.25779399,0.00639159
1704704259988228,-0.46926352,0.35434186,10.29506683,-0.21944447,-0.24607609,0.00532632
1704704259990244,-0.48362875,0.35913026,10.28070164,-0.22264026,-0.23861924,0.00106526
1704704259992246,-0.46926352,0.36391866,10.25197124,-0.22157501,-0.21837921,-0.00745685
1704704259994240,-0.44053310,0.37828386,10.24239445,-0.22690132,-0.18961707,-0.02237055
1704704259996245,-0.43095630,0.38307226,10.21845245,-0.23116238,-0.16192019,-0.01065264
1704704259998247,-0.40222588,0.37349546,10.18014526,-0.23222765,-0.14807175,-0.01384844
1704704260000254,-0.36391866,0.37349546,10.16099167,-0.22690132,-0.12037488,-0.01278317
1704704260002215,-0.33518824,0.36870706,10.12268448,-0.22477080,-0.07882957,-0.00532632
1704704260004229,-0.29209262,0.34955344,10.06043530,-0.23968449,-0.03941479,0.00000000
1704704260006255,-0.25378537,0.33039984,10.02691650,-0.23329291,-0.01491370,0.00213053
1704704260008276,-0.21547815,0.32561144,9.98382092,-0.20985709,0.01384844,0.00532632
1704704260010263,-0.17717093,0.31124622,9.91678333,-0.19494340,0.06391586,0.01384844
1704704260012202,-0.14365210,0.28730419,9.86411095,-0.16724652,0.10652644,0.01810949
1704704260014249,-0.08619126,0.27293900,9.77313137,-0.11824435,0.15233281,0.02769688
1704704260016301,-0.06703765,0.26815060,9.74440098,-0.09693906,0.18002969,0.03302320
1704704260018265,-0.04309563,0.24899697,9.69651699,-0.08202536,0.20559603,0.03302320
1704704260020324,-0.01436521,0.22984336,9.64863300,-0.03302320,0.22583605,0.02982740
1704704260022320,0.03351882,0.22505496,9.61511421,0.02663161,0.24820662,0.04580637
1704704260024364,0.06703765,0.21068975,9.62947941,0.06285060,0.27270770,0.04261058
1704704260026267,0.10534488,0.17717093,9.64863300,0.09693906,0.27696875,0.04048005
1704704260028244,0.16280572,0.16280572,9.67257500,0.16085494,0.27057716,0.04261058
1704704260030240,0.20111294,0.14365210,9.73003578,0.21731395,0.27696875,0.05539375
1704704260032206,0.22505496,0.11013328,9.76355457,0.24927188,0.29188246,0.04900216
1704704260034232,0.27293900,0.08619126,9.76355457,0.28868666,0.30892667,0.04474111
1704704260036252,0.30166942,0.07182605,9.78270817,0.33236250,0.33662355,0.05539375
1704704260038201,0.30166942,0.04309563,9.77791977,0.36112463,0.35686359,0.05539375
1704704260040266,0.33039984,0.01915361,9.74440098,0.38562572,0.38029939,0.04580637
1704704260042318,0.33997664,0.00000000,9.72524738,0.42610577,0.39840889,0.03834952
1704704260044250,0.33518824,-0.01436521,9.71088219,0.45486790,0.41545314,0.03941479
1704704260046234,0.35913026,-0.04309563,9.69651699,0.47404268,0.41651839,0.02130529
1704704260048227,0.37828386,-0.07661445,9.71088219,0.49854377,0.40160468,-0.00532632
1704704260050306,0.38786069,-0.11013328,9.74918938,0.50919640,0.36964676,-0.01917476
1704704260052210,0.41659111,-0.14844051,9.78270817,0.49215218,0.34514567,-0.02237055
1704704260054222,0.45010993,-0.20590134,9.84016895,0.48469532,0.31638354,-0.03941479
1704704260056395,0.46447513,-0.25857377,9.91678333,0.48576057,0.27803403,-0.04687164
1704704260058323,0.52193600,-0.33518824,10.02212811,0.42290998,0.22157501,-0.03728426
1704704260060269,0.53151280,-0.36391866,10.07001209,0.38242993,0.18002969,-0.04367584
1704704260062218,0.53151280,-0.43095630,10.16578007,0.35579833,0.13422331,-0.04048005
1704704260064226,0.55066639,-0.47884035,10.21845245,0.34301513,0.10759171,-0.04687164
1704704260066271,0.56981999,-0.51714754,10.26154804,0.30573088,0.08628642,-0.05006743
1704704260068280,0.55066639,-0.56503159,10.29985619,0.28122982,0.05645901,-0.04580637
1704704260070265,0.55066639,-0.59376204,10.28070164,0.28229508,0.03195793,-0.04474111
1704704260072195,0.55066639,-0.60333884,10.24718285,0.28762141,0.02876214,-0.04048005
1704704260074245,0.50757074,-0.62728083,10.24239445,0.25672874,0.01917476,-0.02450108
1704704260076227,0.48362875,-0.64164603,10.19451046,0.23648870,-0.00745685,-0.01917476
1704704260078254,0.45968673,-0.63206923,10.17535686,0.23009712,-0.01171791,-0.02450108
1704704260080231,0.39743748,-0.64164603,10.19929886,0.20133498,-0.00958738,-0.02663161
1704704260082218,0.34955344,-0.64164603,10.18493366,0.14274544,-0.02556635,-0.01384844
1704704260084245,0.31124622,-0.61770403,10.17535686,0.11611383,-0.04261058,-0.00958738
1704704260086391,0.24420857,-0.60812724,10.19451046,0.11185277,-0.03834952,-0.01491370
1704704260088224,0.20111294,-0.58418524,10.16099167,0.08415589,-0.05006743,-0.00106526
1704704260090253,0.17238252,-0.54108959,10.12268448,0.04048005,-0.10546118,0.01278317
1704704260092220,0.11013328,-0.52672440,10.11789608,0.02237055,-0.13102752,0.01704423
1704704260094190,0.07661445,-0.49799395,10.06522369,0.01810949,-0.12676647,0.01065264
1704704260096207,0.02873042,-0.43574470,10.02212811,-0.00745685,-0.16511598,0.01597897
1704704260098238,0.00478840,-0.42137951,10.02212811,-0.04261058,-0.18216021,0.01597897
1704704260100289,-0.02394202,-0.37828386,9.99818611,-0.06391586,-0.19707392,0.00639159
1704704260102230,-0.06224924,-0.33518824,9.98382092,-0.07669904,-0.21198763,0.00852212
1704704260104218,-0.11013328,-0.29688102,10.00297451,-0.11398330,-0.22796659,0.02024002
1704704260106246,-0.13407530,-0.24420857,9.98860931,-0.15126754,-0.24288028,0.00639159
1704704260108257,-0.15801731,-0.20111294,9.97903252,-0.17789917,-0.26525083,0.00532632
1704704260110244,-0.18674773,-0.17238252,9.96945572,-0.20346551,-0.29401299,0.00958738
1704704260112228,-0.19632454,-0.11971009,9.92636013,-0.24181503,-0.30999196,0.01491370
1704704260114234,-0.20590134,-0.08140286,9.91678333,-0.27590349,-0.32916671,0.01704423
1704704260116252,-0.22505496,-0.05267244,9.90241814,-0.30679616,-0.35473305,0.01704423
1704704260118246,-0.23463176,-0.02394202,9.85932255,-0.32810146,-0.35047200,0.01384844
1704704260120232,-0.23463176,0.00957681,9.86889935,-0.36112463,-0.34727621,0.00745685
1704704260122205,-0.24899697,0.04309563,9.89284134,-0.39414784,-0.35473305,0.01278317
1704704260124275,-0.27772740,0.07182605,9.90720654,-0.40373522,-0.32916671,0.00852212
1704704260126235,-0.27772740,0.11013328,9.97424412,-0.40373522,-0.26205504,-0.00319579
1704704260128255,-0.29688102,0.17238252,10.06522369,-0.38882151,-0.20879182,-0.01278317
1704704260130246,-0.32561144,0.21547815,10.13704967,-0.38562572,-0.17896442,-0.00639159
1704704260132214,-0.33039984,0.24420857,10.20887566,-0.39308259,-0.15765914,-0.01917476
1704704260134239,-0.33997664,0.28730419,10.26633644,-0.40266997,-0.14061491,-0.01597897
1704704260136340,-0.33997664,0.31124622,10.26154804,-0.43036684,-0.14061491,-0.00745685
1704704260138342,-0.32561144,0.31603462,10.22324085,-0.44634581,-0.15020229,0.00000000
1704704260140269,-0.32561144,0.33039984,10.15141487,-0.46019423,-0.13635385,-0.00213053
1704704260142223,-0.31124622,0.33518824,10.11789608,-0.46019423,-0.13209279,0.00000000
1704704260144250,-0.29209262,0.33518824,10.06522369,-0.46871635,-0.10865697,-0.01171791
1704704260146217,-0.28730419,0.35434186,10.04607010,-0.44847631,-0.08628642,-0.02450108
1704704260148250,-0.25857377,0.36870706,10.02691650,-0.40160468,-0.04687164,-0.03515373
1704704260150257,-0.21547815,0.39264908,10.03170490,-0.36005938,0.00426106,-0.05006743
1704704260152200,-0.19632454,0.42137951,10.07001209,-0.31744879,0.02769688,-0.03621899
1704704260154348,-0.15801731,0.43095630,10.07001209,-0.27696875,0.02450108,-0.02130529
1704704260156230,-0.11013328,0.43574470,10.05564690,-0.24607609,0.04687164,-0.01810949
1704704260158247,-0.08619126,0.44532153,10.04128170,-0.23435818,0.07989483,-0.02556635
1704704260160264,-0.05267244,0.44053310,9.98860931,-0.20453078,0.08841695,-0.00532632
1704704260162191,-0.00478840,0.43574470,9.95030212,-0.16831177,0.09374327,0.01597897
1704704260164232,0.01436521,0.42616791,9.93114853,-0.12889700,0.11504856,0.01810949
1704704260166259,0.05267244,0.41180268,9.89762974,-0.10546118,0.12250541,0.01491370
1704704260168277,0.09576806,0.39743748,9.88326454,-0.06498113,0.13528858,0.03089267
1704704260170228,0.11971009,0.37349546,9.89284134,-0.01384844,0.16511598,0.02450108
1704704260172222,0.15322891,0.35434186,9.86411095,0.03515373,0.19494340,0.02556635
1704704260174240,0.18195933,0.33518824,9.86411095,0.05326322,0.20879182,0.02876214
1704704260176484,0.19153613,0.30166942,9.87368774,0.09587380,0.22690132,0.02769688
1704704260178249,0.22984336,0.26815060,9.79707336,0.17363811,0.28336033,0.03728426
1704704260180235,0.23463176,0.26336220,9.78749657,0.18429075,0.30146983,0.04367584
1704704260182231,0.22984336,0.22984336,9.78270817,0.20240024,0.31212249,0.06072007
1704704260184241,0.23942018,0.19632454,9.73482418,0.25885925,0.32916671,0.06072007
1704704260186251,0.25378537,0.18674773,9.70609379,0.31105721,0.35153726,0.06604639
1704704260188247,0.24899697,0.15801731,9.70609379,0.35153726,0.36112463,0.06711166
1704704260190244,0.26336220,0.12449849,9.68215179,0.38775626,0.35473305,0.06711166
1704704260192225,0.28251579,0.11971009,9.67736340,0.43782368,0.35899413,0.04580637
1704704260194273,0.27772740,0.08619126,9.70130539,0.48682585,0.36645097,0.03728426
1704704260196216,0.29688102,0.05267244,9.69172859,0.51345748,0.34194988,0.02130529
1704704260198258,0.31603462,0.03830723,9.69172859,0.51771849,0.32490566,0.02237055
1704704260200266,0.30645782,0.00000000,9.70609379,0.54754591,0.32170987,0.00852212
1704704260202212,0.32082301,-0.03351882,9.69651699,0.55926383,0.30573088,0.00958738
1704704260204225,0.33997664,-0.04788403,9.72045898,0.55500275,0.25992453,0.01704423
1704704260206250,0.33039984,-0.09576806,9.76834297,0.53689325,0.22477080,0.01278317
1704704260208248,0.34476504,-0.14844051,9.80186176,0.53689325,0.18322548,0.00213053
1704704260210231,0.36391866,-0.18674773,9.87847614,0.51452273,0.11930962,-0.00852212
1704704260212236,0.36870706,-0.24420857,9.96945572,0.48256478,0.07989483,-0.00639159
1704704260214196,0.37349546,-0.29688102,10.05085850,0.45699844,0.04687164,-0.01810949
1704704260216261,0.37828386,-0.33997664,10.13226128,0.46339002,-0.00213053,-0.02237055
1704704260218269,0.37349546,-0.38786069,10.19929886,0.45593318,-0.02130529,-0.01597897
1704704260220399,0.36870706,-0.42137951,10.23760605,0.43036684,-0.03941479,-0.01278317
1704704260222181,0.34476504,-0.45489833,10.25675964,0.44101948,-0.06711166,-0.00213053
1704704260224283,0.33997664,-0.46447513,10.24239445,0.45273739,-0.07563377,0.00106526
1704704260226255,0.33039984,-0.46447513,10.20408726,0.45060685,-0.08522116,-0.00106526
1704704260228259,0.31124622,-0.47405192,10.17535686,0.42823631,-0.10013486,0.01491370
1704704260230218,0.27772740,-0.49320555,10.15620327,0.38562572,-0.10333065,0.00532632
1704704260232239,0.25378537,-0.50278234,10.15620327,0.33129725,-0.09693906,0.00532632
1704704260234296,0.21547815,-0.53151280,10.18014526,0.26205504,-0.09161274,0.00958738
1704704260236258,0.16280572,-0.56024319,10.20887566,0.19387813,-0.09480853,0.00000000
1704704260238210,0.12928689,-0.56503159,10.24239445,0.15126754,-0.10972223,0.01065264
1704704260240243,0.08619126,-0.57939678,10.25675964,0.12570120,-0.12250541,0.01810949
1704704260242238,0.04788403,-0.58897364,10.23760605,0.11824435,-0.14061491,0.02982740
1704704260244258,0.03351882,-0.56503159,10.20887566,0.09800433,-0.17683390,0.03834952
1704704260246295,0.00957681,-0.55545479,10.16578007,0.08096009,-0.22157501,0.04048005
1704704260248260,0.00000000,-0.54108959,10.09874249,0.05858954,-0.25885925,0.04900216
1704704260250303,-0.00478840,-0.51235914,10.04128170,0.04793690,-0.27270770,0.04580637
1704704260252310,-0.02394202,-0.50278234,9.99339771,0.00319579,-0.27909929,0.04580637
1704704260254208,-0.03830723,-0.47405192,9.95030212,-0.04793690,-0.29081720,0.05432849
1704704260256249,-0.05746084,-0.44053310,9.93593693,-0.08735169,-0.28016454,0.05965481
1704704260258150,-0.08619126,-0.42137951,9.93593693,-0.12783173,-0.26418558,0.04367584
1704704260260236,-0.11971009,-0.35434186,9.93593693,-0.17044231,-0.24927188,0.03728426
1704704260262226,-0.13407530,-0.33997664,9.94072533,-0.19281286,-0.25246766,0.04154531
1704704260264423,-0.15801731,-0.31124622,9.94072533,-0.22264026,-0.25246766,0.03728426
1704704260266257,-0.17238252,-0.25378537,9.90720654,-0.25353295,-0.25353295,0.03515373
1704704260268255,-0.18195933,-0.24899697,9.90241814,-0.28336033,-0.26098979,0.03302320
1704704260270289,-0.18674773,-0.22984336,9.86889935,-0.31425300,-0.26525083,0.03834952
1704704260272194,-0.18674773,-0.19153613,9.83059216,-0.33875409,-0.25140241,0.02343582
1704704260274290,-0.20590134,-0.18195933,9.82101536,-0.36112463,-0.23116238,0.01171791
1704704260276252,-0.21547815,-0.14844051,9.81143856,-0.39201730,-0.19494340,-0.00319579
1704704260278242,-0.21547815,-0.10534488,9.84495735,-0.40906155,-0.15872440,-0.01704423
1704704260280238,-0.22984336,-0.07661445,9.91199493,-0.42397526,-0.10972223,-0.02876214
1704704260282231,-0.23463176,-0.03351882,9.95030212,-0.42077947,-0.06817693,-0.03941479
1704704260284254,-0.23463176,0.00957681,10.01255131,-0.42290998,-0.03195793,-0.03302320
1704704260286243,-0.24899697,0.02873042,10.07001209,-0.43356264,-0.00532632,-0.03408846
1704704260288253,-0.23942018,0.06224924,10.06522369,-0.45699844,0.00958738,-0.02024002
1704704260290286,-0.23463176,0.08140286,10.07001209,-0.48469532,0.01065264,-0.02237055
1704704260292224,-0.23463176,0.08140286,10.05564690,-0.48895636,0.01065264,-0.01278317
1704704260294245,-0.21068975,0.10534488,9.99339771,-0.47723848,0.02024002,-0.00319579
1704704260296227,-0.20590134,0.11492168,9.95509052,-0.49108690,0.03621899,0.00213053
1704704260298250,-0.20590134,0.11013328,9.91678333,-0.48469532,0.05432849,-0.01704423
1704704260300285,-0.17717093,0.13407530,9.86411095,-0.44528052,0.07776430,-0.02343582
1704704260302168,-0.16280572,0.16280572,9.87368774,-0.38882151,0.11185277,-0.01917476
1704704260305054,-0.10534488,0.23942018,9.94072533,-0.25033715,0.13209279,-0.01917476
1704704260306997,-0.07182605,0.28251579,10.02212811,-0.18642128,0.13954964,-0.00745685
1704704260309959,-0.01436521,0.31124622,10.09874249,-0.12037488,0.14700650,0.00213053
1704704260310460,0.00478840,0.33518824,10.11789608,-0.11717909,0.15020229,0.00426106
1704704260312212,0.00478840,0.33518824,10.11789608,-0.11398330,0.15126754,0.00532632
1704704260314378,0.03830723,0.35434186,10.14662647,-0.07243798,0.15872440,0.01917476
1704704260316255,0.05267244,0.35913026,10.14662647,-0.05645901,0.17150757,0.02982740
1704704260318242,0.08140286,0.38307226,10.12747288,-0.03408846,0.20772657,0.03515373
1704704260320262,0.09097967,0.37828386,10.10353088,-0.02237055,0.22690132,0.03195793
1704704260322203,0.09576806,0.36870706,10.05564690,0.00106526,0.24181503,0.04793690
1704704260324281,0.11013328,0.36870706,10.00776291,0.02343582,0.25033715,0.04687164
1704704260326255,0.10534488,0.35434186,9.95987892,0.04793690,0.26312032,0.06498113
1704704260328228,0.10055647,0.33997664,9.90241814,0.07243798,0.29188246,0.07137272
1704704260330234,0.10534488,0.33039984,9.85453415,0.10439591,0.30786142,0.06498113
1704704260332243,0.10534488,0.30645782,9.81622696,0.13741912,0.30040458,0.06604639
1704704260334260,0.11492168,0.28730419,9.80186176,0.16192019,0.28442562,0.05432849
1704704260336285,0.13886370,0.26336220,9.82101536,0.18961707,0.27377295,0.02556635
1704704260338247,0.15322891,0.22984336,9.84974575,0.22477080,0.26525083,0.02237055
1704704260340235,0.17717093,0.20590134,9.88805294,0.26525083,0.24501082,0.02450108
1704704260342245,0.21068975,0.16280572,9.93593693,0.28549087,0.21944447,0.01171791
1704704260344247,0.22026655,0.14844051,9.94072533,0.30892667,0.21518342,0.00745685
1704704260346250,0.22984336,0.12928689,9.95509052,0.34194988,0.21411815,0.01065264
1704704260348226,0.24420857,0.10534488,9.94072533,0.37177730,0.20133498,0.01171791
1704704260350284,0.24899697,0.09576806,9.92157173,0.38349521,0.19174761,0.00745685
1704704260352291,0.24899697,0.08140286,9.91199493,0.39947417,0.18642128,-0.00426106
1704704260354238,0.25378537,0.05746084,9.89762974,0.41012681,0.17257284,-0.00213053
1704704260356247,0.25378537,0.03351882,9.88805294,0.41545314,0.12676647,-0.00852212
1704704260358276,0.25857377,0.00957681,9.92636013,0.40160468,0.07882957,-0.01810949
1704704260360282,0.27293900,-0.03351882,9.95509052,0.39414784,0.04687164,-0.02343582
1704704260362199,0.27772740,-0.07182605,9.99818611,0.37816888,0.01491370,-0.03089267
1704704260364249,0.27772740,-0.11013328,10.07480049,0.36645097,-0.01917476,-0.02982740
1704704260366244,0.28251579,-0.15322891,10.12747288,0.35792884,-0.05645901,-0.02450108
1704704260368246,0.27293900,-0.18195933,10.18014526,0.35579833,-0.07563377,-0.01704423
1704704260370264,0.26336220,-0.21068975,10.21845245,0.37177730,-0.08096009,-0.01171791
1704704260372185,0.26336220,-0.23463176,10.21845245,0.38775626,-0.09267800,-0.00426106
1704704260374253,0.24899697,-0.23942018,10.22324085,0.38882151,-0.10226539,0.00319579
1704704260376294,0.23942018,-0.24899697,10.21366405,0.39734364,-0.11717909,0.01278317
1704704260378206,0.23463176,-0.25857377,10.16578007,0.40053943,-0.13209279,0.01491370
1704704260380240,0.21547815,-0.24899697,10.13704967,0.39734364,-0.14061491,0.02556635
1704704260382229,0.21068975,-0.25378537,10.09395409,0.37710360,-0.14913702,0.01384844
1704704260384238,0.20590134,-0.25857377,10.05085850,0.34088463,-0.15020229,0.01171791
1704704260386268,0.17238252,-0.26815060,10.05564690,0.29188246,-0.16085494,0.00852212
1704704260388289,0.15322891,-0.29688102,10.07958889,0.21624868,-0.16724652,0.00000000
1704704260390440,0.11971009,-0.32082301,10.11310768,0.15339808,-0.15552860,-0.00958738
1704704260392254,0.07182605,-0.33518824,10.17056847,0.10652644,-0.14807175,-0.00213053
1704704260394236,0.05746084,-0.35434186,10.18014526,0.07456851,-0.15978967,0.00000000
1704704260396232,0.02394202,-0.36870706,10.19929886,0.02663161,-0.18961707,0.00745685
1704704260398238,0.00478840,-0.35913026,10.20887566,0.00106526,-0.20666130,0.00745685
1704704260400285,-0.00957681,-0.37828386,10.18493366,-0.01171791,-0.22690132,0.00852212
1704704260402241,-0.02394202,-0.37828386,10.15141487,-0.03089267,-0.23116238,0.00106526
1704704260404209,-0.03351882,-0.36391866,10.11310768,-0.06924219,-0.24820662,0.00426106
1704704260406292,-0.04309563,-0.38307226,10.06522369,-0.09161274,-0.24927188,0.01704423
1704704260408308,-0.04309563,-0.36391866,10.02212811,-0.11611383,-0.25779399,0.02769688
1704704260410264,-0.04309563,-0.36870706,9.96466732,-0.14487596,-0.26312032,0.03195793
1704704260412202,-0.04788403,-0.38307226,9.91199493,-0.17576863,-0.25885925,0.02982740
1704704260414238,-0.04309563,-0.35434186,9.85932255,-0.20666130,-0.24927188,0.03941479
1704704260416266,-0.04788403,-0.36870706,9.81622696,-0.24394555,-0.23222765,0.03089267
1704704260418268,-0.04788403,-0.36870706,9.77791977,-0.29401299,-0.22477080,0.02343582
1704704260420245,-0.04788403,-0.33518824,9.74440098,-0.31531829,-0.22050974,0.00639159
1704704260422210,-0.05267244,-0.33997664,9.73961258,-0.32703617,-0.19068234,-0.00213053
1704704260424265,-0.06224924,-0.31603462,9.74440098,-0.32597092,-0.16085494,-0.01065264
1704704260426266,-0.07182605,-0.26815060,9.79228497,-0.33875409,-0.09161274,-0.02450108
1704704260428237,-0.09097967,-0.24420857,9.86889935,-0.35686359,-0.05645901,-0.02876214
1704704260430210,-0.10534488,-0.19153613,9.93114853,-0.35686359,-0.03089267,-0.03195793
1704704260432249,-0.11013328,-0.15322891,9.98860931,-0.36538571,0.00106526,-0.03408846
1704704260434252,-0.12928689,-0.13886370,10.03170490,-0.38242993,0.04048005,-0.00852212
1704704260436254,-0.12928689,-0.08140286,10.06522369,-0.40906155,0.04900216,0.00532632
1704704260438238,-0.13407530,-0.07661445,10.07958889,-0.40373522,0.05219796,0.00319579
1704704260440542,-0.14365210,-0.05746084,10.08437729,-0.40160468,0.06178534,0.01597897
1704704260442228,-0.13407530,-0.01915361,10.06522369,-0.41119206,0.08735169,0.01384844
1704704260444264,-0.13886370,-0.01915361,10.06522369,-0.41651839,0.09054748,0.00958738
1704704260446243,-0.13407530,-0.00478840,10.05085850,-0.40373522,0.09267800,0.00639159
1704704260448249,-0.11971009,0.01436521,10.03649330,-0.39414784,0.10652644,0.00106526
1704704260450351,-0.12449849,0.01915361,10.03170490,-0.40480047,0.12037488,-0.00639159
1704704260452225,-0.11492168,0.02873042,10.00776291,-0.37390780,0.11611383,0.01171791
1704704260454283,-0.10055647,0.04309563,9.99818611,-0.34834146,0.12889700,0.00958738
1704704260456254,-0.10055647,0.04309563,9.99818611,-0.32916671,0.14700650,-0.00106526
1704704260458290,-0.08619126,0.05746084,9.98382092,-0.31957933,0.14700650,-0.00532632
1704704260460238,-0.08140286,0.06703765,9.97424412,-0.27909929,0.15020229,0.00213053
1704704260462237,-0.07661445,0.07182605,9.97424412,-0.23222765,0.18322548,0.00426106
1704704260464243,-0.06224924,0.09097967,9.96945572,-0.19600865,0.20026971,0.00213053
1704704260466232,-0.05267244,0.11013328,9.98382092,-0.16724652,0.18642128,0.00639159
1704704260468272,-0.04309563,0.11971009,9.99818611,-0.13635385,0.19494340,0.00532632
1704704260470247,-0.03351882,0.14365210,10.00297451,-0.08415589,0.20985709,0.01065264
1704704260472204,-0.01915361,0.15322891,10.01733971,-0.04474111,0.20772657,0.01597897
1704704260474371,-0.01436521,0.15322891,10.02691650,-0.02876214,0.21624868,0.01384844
1704704260476270,-0.00478840,0.16759412,10.04128170,-0.00426106,0.21731395,0.01810949
1704704260478219,0.00478840,0.16280572,10.05085850,0.03195793,0.21518342,0.01491370
1704704260480287,0.00957681,0.17238252,10.05085850,0.07456851,0.22264026,0.03302320
1704704260482245,0.01915361,0.17717093,10.05564690,0.08948221,0.23222765,0.03941479
1704704260484251,0.03351882,0.16759412,10.05564690,0.10120012,0.23222765,0.03195793
1704704260486247,0.03830723,0.17238252,10.06522369,0.13102752,0.23435818,0.03089267
1704704260488229,0.05267244,0.16759412,10.06043530,0.16724652,0.22583605,0.02450108
1704704260490275,0.05267244,0.16280572,10.05564690,0.19494340,0.20879182,0.02556635
1704704260492233,0.05746084,0.16759412,10.06522369,0.21092236,0.19600865,0.02663161
1704704260494229,0.07661445,0.15322891,10.06522369,0.23009712,0.19068234,0.01917476
1704704260496261,0.07182605,0.14844051,10.06522369,0.24181503,0.17683390,0.01704423
1704704260498214,0.08140286,0.14844051,10.07001209,0.25353295,0.15446334,0.01597897
1704704260500272,0.09097967,0.13407530,10.07001209,0.28762141,0.12463594,0.01491370
1704704260502238,0.08140286,0.13407530,10.07001209,0.31318775,0.11930962,0.02130529
1704704260504232,0.10055647,0.12928689,10.07001209,0.33236250,0.10652644,0.02343582
1704704260506264,0.10055647,0.11492168,10.07480049,0.35153726,0.08522116,0.01597897
1704704260508276,0.09576806,0.11971009,10.08437729,0.37816888,0.06178534,0.00852212
1704704260510275,0.11013328,0.11013328,10.08437729,0.38242993,0.04793690,-0.00106526
1704704260512219,0.10534488,0.10055647,10.09874249,0.39521310,0.02024002,0.00000000
1704704260514243,0.11013328,0.10055647,10.11789608,0.38669100,-0.00426106,-0.00319579
1704704260516250,0.12449849,0.07182605,10.13226128,0.37071201,-0.01917476,-0.00319579
1704704260518289,0.11971009,0.07661445,10.16099167,0.36751622,-0.05113269,0.00426106
1704704260520260,0.12928689,0.06703765,10.18493366,0.36645097,-0.06924219,0.02024002
1704704260522237,0.13407530,0.03351882,10.20887566,0.35579833,-0.08415589,0.02769688
1704704260524266,0.12449849,0.04788403,10.24239445,0.31744879,-0.08522116,0.02130529
1704704260526268,0.13407530,0.01436521,10.25675964,0.31425300,-0.09587380,0.03089267
1704704260528271,0.12928689,0.00478840,10.28070164,0.30466563,-0.11717909,0.04154531
1704704260530257,0.11971009,0.01436521,10.29985619,0.31851408,-0.12463594,0.03089267
1704704260532246,0.11971009,-0.03351882,10.30464458,0.29507825,-0.13635385,0.02343582
1704704260534252,0.11492168,-0.02394202,10.32379818,0.27164242,-0.14274544,0.02769688
1704704260536257,0.11492168,-0.04309563,10.32858658,0.23755397,-0.16192019,0.03728426
1704704260538238,0.11492168,-0.08140286,10.33337498,0.22583605,-0.17470337,0.04048005
1704704260540261,0.11013328,-0.06224924,10.34774017,0.20133498,-0.17257284,0.03728426
1704704260542221,0.10534488,-0.10055647,10.35731697,0.16831177,-0.16937704,0.03834952
1704704260544266,0.11492168,-0.10534488,10.35731697,0.13954964,-0.17683390,0.03408846
1704704260546215,0.10055647,-0.10055647,10.36210537,0.12037488,-0.18535601,0.03195793
1704704260548263,0.10055647,-0.14844051,10.36210537,0.07882957,-0.18109496,0.03515373
1704704260550274,0.10055647,-0.13407530,10.36210537,0.03834952,-0.17576863,0.03089267
1704704260552244,0.08140286,-0.14844051,10.37647057,0.00852212,-0.16937704,0.02343582
1704704260554353,0.09097967,-0.18195933,10.36689377,-0.01704423,-0.16618125,0.00745685
1704704260556263,0.08140286,-0.16280572,10.36210537,-0.03408846,-0.15765914,-0.00213053
1704704260558297,0.06703765,-0.18674773,10.38125896,-0.06924219,-0.15020229,-0.00319579
1704704260560206,0.07182605,-0.19153613,10.36689377,-0.08841695,-0.13954964,-0.00106526
1704704260562239,0.05267244,-0.18195933,10.37647057,-0.11291803,-0.13315806,-0.00319579
1704704260564241,0.05267244,-0.21068975,10.38604736,-0.11930962,-0.12889700,-0.00958738
1704704260566403,0.04788403,-0.19632454,10.36689377,-0.15020229,-0.11611383,-0.01384844
1704704260568255,0.03351882,-0.21068975,10.39562416,-0.19174761,-0.09587380,-0.01065264
1704704260570260,0.03351882,-0.21547815,10.38604736,-0.19494340,-0.09374327,-0.01171791
1704704260572206,0.01915361,-0.19632454,10.38125896,-0.21198763,-0.08522116,-0.01810949
1704704260574315,0.01436521,-0.21068975,10.40998936,-0.23968449,-0.07350325,-0.02450108
1704704260576316,0.00957681,-0.21547815,10.40041256,-0.25672874,-0.05326322,-0.02024002
1704704260578268,-0.00478840,-0.20590134,10.40998936,-0.26098979,-0.04154531,-0.01704423
1704704260580277,-0.00478840,-0.21547815,10.43871975,-0.26525083,-0.02876214,-0.02024002
1704704260582245,-0.01915361,-0.20590134,10.43871975,-0.27057716,-0.02237055,-0.01491370
1704704260584254,-0.02394202,-0.19632454,10.47702694,-0.27590349,-0.01278317,-0.00426106
1704704260586239,-0.01915361,-0.19632454,10.48660374,-0.27057716,0.01384844,-0.00639159
1704704260588260,-0.03351882,-0.16759412,10.50096893,-0.26205504,0.01384844,-0.01171791
1704704260590278,-0.03351882,-0.16759412,10.53927612,-0.26205504,0.01704423,0.00000000
1704704260592284,-0.04309563,-0.15322891,10.55364132,-0.26205504,0.03302320,0.00426106
1704704260594284,-0.04788403,-0.12928689,10.57758331,-0.23542345,0.04367584,0.00319579
1704704260596232,-0.04309563,-0.11971009,10.59673691,-0.20879182,0.03728426,0.00319579
1704704260598212,-0.04788403,-0.09576806,10.59194851,-0.19813919,0.05326322,0.00745685
1704704260600269,-0.05267244,-0.08619126,10.61589050,-0.19068234,0.06498113,0.00852212
1704704260602245,-0.05267244,-0.06703765,10.61589050,-0.18109496,0.07882957,0.01597897
1704704260604356,-0.05267244,-0.04309563,10.61110210,-0.16298546,0.07563377,0.02237055
1704704260606258,-0.05746084,-0.03830723,10.61110210,-0.14594123,0.09267800,0.02343582
1704704260608295,-0.05267244,-0.01915361,10.59673691,-0.14274544,0.09800433,0.02556635
1704704260610273,-0.05746084,-0.00478840,10.58716011,-0.13848437,0.12037488,0.02769688
1704704260612201,-0.06224924,0.00000000,10.59194851,-0.11398330,0.13635385,0.02663161
1704704260614252,-0.05746084,0.02394202,10.57279491,-0.09587380,0.14381070,0.02769688
1704704260616282,-0.06703765,0.02394202,10.57279491,-0.07030746,0.14487596,0.02556635
1704704260618282,-0.05746084,0.04309563,10.56800652,-0.05006743,0.14807175,0.02556635
1704704260620255,-0.05746084,0.05746084,10.55364132,-0.03195793,0.15552860,0.02024002
1704704260622240,-0.06224924,0.05746084,10.56321812,-0.02343582,0.16192019,0.02130529
1704704260624263,-0.05267244,0.06703765,10.55842972,-0.00213053,0.15765914,0.01065264
1704704260626262,-0.05746084,0.07182605,10.55842972,0.02556635,0.14807175,0.01917476
1704704260628265,-0.05267244,0.07661445,10.57279491,0.05432849,0.14594123,0.02024002
1704704260630294,-0.04309563,0.09097967,10.56800652,0.06391586,0.15872440,0.02024002
1704704260632240,-0.05746084,0.09097967,10.57279491,0.08841695,0.15978967,0.00745685
1704704260634255,-0.04309563,0.10055647,10.58716011,0.11930962,0.14594123,0.00639159
1704704260636210,-0.04788403,0.09576806,10.58716011,0.15446334,0.14061491,-0.01065264
1704704260638226,-0.04788403,0.10055647,10.60631371,0.15872440,0.14594123,-0.00852212
1704704260640275,-0.03351882,0.11013328,10.61110210,0.16511598,0.14594123,-0.01704423
1704704260642183,-0.04309563,0.10055647,10.62546730,0.19174761,0.13848437,-0.01278317
1704704260644225,-0.03351882,0.10534488,10.64940929,0.20985709,0.12570120,-0.02130529
1704704260646266,-0.02394202,0.09576806,10.65419769,0.20346551,0.12144014,-0.01278317
1704704260648266,-0.03351882,0.09576806,10.67335129,0.19600865,0.11398330,-0.01171791
1704704260650264,-0.00957681,0.09576806,10.68771648,0.20985709,0.10759171,-0.01704423
1704704260652241,-0.01436521,0.07182605,10.68292809,0.21411815,0.09693906,-0.02024002
1704704260654218,-0.00957681,0.08140286,10.69729328,0.20666130,0.08628642,-0.02237055
1704704260656258,0.00957681,0.06703765,10.70687008,0.21624868,0.06817693,-0.01384844
1704704260658286,0.00000000,0.05267244,10.71165848,0.22264026,0.06072007,-0.00958738
1704704260660261,0.01915361,0.06703765,10.72123528,0.21624868,0.04580637,-0.01597897
1704704260662220,0.02394202,0.02873042,10.72123528,0.20559603,0.02556635,-0.00745685
1704704260664244,0.02873042,0.04309563,10.72602367,0.19387813,0.02024002,0.00213053
1704704260666266,0.04309563,0.03351882,10.72602367,0.20559603,0.02024002,0.01171791
1704704260668286,0.03830723,0.00000000,10.72123528,0.19813919,0.01597897,0.01065264
1704704260670273,0.05267244,0.02394202,10.71644688,0.18642128,0.00852212,0.00639159
1704704260672221,0.05746084,-0.01436521,10.70687008,0.18429075,-0.00639159,0.00639159
1704704260674356,0.05746084,-0.02394202,10.69729328,0.16724652,-0.02556635,0.00639159
1704704260676253,0.07182605,-0.01436521,10.68771648,0.15765914,-0.03302320,0.00106526
1704704260678264,0.07182605,-0.05746084,10.68292809,0.14913702,-0.03089267,0.00213053
1704704260680210,0.08140286,-0.04309563,10.65898609,0.14700650,-0.04474111,0.00745685
1704704260682258,0.08140286,-0.05746084,10.64462090,0.12570120,-0.06072007,0.02130529
1704704260684237,0.07661445,-0.07661445,10.63025570,0.11824435,-0.06817693,0.02343582
1704704260686279,0.08619126,-0.05746084,10.61110210,0.11611383,-0.07137272,0.02237055
1704704260688246,0.08140286,-0.09097967,10.59673691,0.10759171,-0.07350325,0.02663161
1704704260690280,0.08619126,-0.08619126,10.56800652,0.09161274,-0.07989483,0.02982740
1704704260692245,0.08140286,-0.08619126,10.54406452,0.08522116,-0.08415589,0.02343582
1704704260694312,0.08140286,-0.11492168,10.53927612,0.06391586,-0.08841695,0.03302320
1704704260697042,0.08140286,-0.10055647,10.50575733,0.03834952,-0.08628642,0.02982740
1704704260698237,0.07661445,-0.11971009,10.49618053,0.00958738,-0.08309063,0.02663161
1704704260700275,0.07661445,-0.12449849,10.47702694,0.00106526,-0.08096009,0.01384844
1704704260702308,0.07182605,-0.11013328,10.45308495,0.00000000,-0.06817693,0.00958738
1704704260704236,0.06703765,-0.12928689,10.46266174,-0.01171791,-0.07030746,0.00426106
1704704260706258,0.06703765,-0.11971009,10.43871975,-0.02237055,-0.07456851,0.00639159
1704704260708338,0.05267244,-0.11971009,10.42914295,-0.04367584,-0.06178534,0.00532632
1704704260710276,0.04788403,-0.12449849,10.42914295,-0.05219796,-0.04793690,0.00745685
1704704260712262,0.04788403,-0.10534488,10.40520096,-0.05965481,-0.05219796,0.00958738
1704704260714257,0.03351882,-0.11492168,10.40998936,-0.07030746,-0.05219796,0.00213053
1704704260716281,0.02873042,-0.10534488,10.40041256,-0.08522116,-0.05006743,-0.00745685
1704704260718290,0.01915361,-0.09576806,10.37647057,-0.09480853,-0.04900216,-0.00639159
1704704260720345,0.01436521,-0.10055647,10.38604736,-0.07882957,-0.03515373,-0.00852212
1704704260722244,0.01436521,-0.08140286,10.36210537,-0.07456851,-0.02556635,-0.01491370
1704704260724412,0.00478840,-0.08140286,10.34774017,-0.08522116,-0.02876214,-0.02769688
1704704260726291,0.00000000,-0.06703765,10.35252857,-0.09587380,-0.02343582,-0.00958738
1704704260728274,-0.00957681,-0.06224924,10.33816338,-0.08841695,-0.02024002,-0.00532632
1704704260730254,-0.01436521,-0.06703765,10.33337498,-0.08415589,0.00426106,-0.01171791
1704704260732231,-0.01915361,-0.05267244,10.32858658,-0.10759171,0.01384844,-0.01278317
1704704260734241,-0.02873042,-0.05746084,10.30943298,-0.12570120,0.02024002,-0.00639159
1704704260736280,-0.03351882,-0.05267244,10.31422138,-0.10759171,0.01384844,-0.00532632
1704704260738227,-0.03830723,-0.04309563,10.29506683,-0.09906960,0.02450108,-0.00852212
1704704260740276,-0.04788403,-0.05746084,10.28549004,-0.09800433,0.03834952,-0.00319579
1704704260742274,-0.04788403,-0.03351882,10.28070164,-0.10120012,0.03408846,0.00319579
1704704260744242,-0.05267244,-0.03830723,10.27112484,-0.07669904,0.03515373,0.00426106
1704704260746230,-0.05267244,-0.04309563,10.27591324,-0.05752428,0.04793690,0.00745685
1704704260748263,-0.05267244,-0.01915361,10.27112484,-0.05858954,0.05539375,0.00532632
1704704260750292,-0.05267244,-0.02873042,10.26633644,-0.05858954,0.04580637,0.00852212
1704704260752218,-0.04788403,-0.01915361,10.27112484,-0.03728426,0.04474111,0.01171791
1704704260754232,-0.04788403,-0.00957681,10.27112484,-0.02450108,0.04687164,0.00532632
1704704260756290,-0.04788403,-0.02394202,10.27112484,-0.02024002,0.05645901,-0.00426106
1704704260758301,-0.03830723,0.00478840,10.27112484,-0.01917476,0.04793690,0.00319579
1704704260760316,-0.03830723,-0.00478840,10.27112484,-0.00213053,0.03621899,0.00000000
1704704260762153,-0.03351882,-0.00478840,10.27591324,0.01491370,0.03195793,-0.00852212
1704704260764258,-0.02873042,0.01436521,10.27591324,0.01597897,0.04261058,-0.00639159
1704704260766289,-0.03351882,-0.00478840,10.27112484,0.01597897,0.04261058,0.00106526
1704704260768265,-0.02394202,0.01436521,10.27591324,0.04367584,0.03089267,-0.00106526
1704704260770247,-0.01915361,0.01915361,10.27112484,0.06711166,0.04154531,0.00319579
1704704260772250,-0.02394202,0.00478840,10.27112484,0.06072007,0.05006743,0.00426106
1704704260774246,-0.01436521,0.03351882,10.27112484,0.05752428,0.05219796,0.00426106
1704704260776255,-0.01436521,0.02394202,10.26154804,0.08841695,0.04580637,0.00213053
1704704260778309,-0.00957681,0.02873042,10.25675964,0.10759171,0.04900216,0.00213053
1704704260780264,-0.00478840,0.04788403,10.26154804,0.09693906,0.04900216,-0.00426106
1704704260782224,-0.00957681,0.02394202,10.26154804,0.10865697,0.04900216,-0.01065264
1704704260784260,0.00000000,0.03830723,10.26633644,0.13635385,0.03941479,-0.00852212
1704704260786375,0.00478840,0.03830723,10.27591324,0.14274544,0.02450108,-0.01384844
1704704260788250,0.00000000,0.01915361,10.27591324,0.12250541,0.00852212,-0.01597897
1704704260790273,0.01436521,0.03830723,10.28070164,0.12037488,0.00639159,-0.00958738
1704704260792264,0.00957681,0.01436521,10.29506683,0.13635385,0.00106526,0.00319579
1704704260794421,0.00957681,0.01436521,10.29506683,0.14168017,-0.00532632,0.00426106
1704704260796259,0.01915361,0.02394202,10.29985619,0.13741912,-0.00532632,0.00426106
1704704260798266,0.00478840,0.00000000,10.30464458,0.13315806,-0.00319579,0.00745685
1704704260800323,0.01915361,0.01436521,10.29985619,0.13954964,-0.00639159,0.00852212
1704704260802237,0.01915361,0.00957681,10.30464458,0.13209279,0.00532632,0.00958738
1704704260804235,0.00478840,-0.00478840,10.30943298,0.12783173,0.00213053,0.00958738
1704704260806280,0.02394202,0.00957681,10.30464458,0.13209279,-0.00319579,0.00532632
1704704260808294,0.00478840,-0.00478840,10.31900978,0.13102752,-0.00532632,0.00852212
1704704260810261,0.00957681,-0.00957681,10.31900978,0.11717909,-0.00319579,0.00000000
1704704260812229,0.01915361,-0.00478840,10.32858658,0.09800433,-0.00745685,-0.00319579
1704704260814253,-0.00478840,-0.02394202,10.34295177,0.10333065,-0.00532632,0.00213053
1704704260816274,0.01436521,-0.01436521,10.33337498,0.10865697,-0.00639159,-0.00213053
1704704260818262,0.00478840,-0.01915361,10.34295177,0.10013486,-0.00639159,-0.01171791
1704704260820269,0.00000000,-0.02873042,10.35252857,0.08841695,-0.00532632,-0.00532632
1704704260822218,0.01436521,-0.02873042,10.34774017,0.07137272,0.00000000,-0.00426106
1704704260824312,-0.00957681,-0.03830723,10.36689377,0.07456851,-0.00213053,0.00000000
1704704260826264,0.00478840,-0.03830723,10.36210537,0.07776430,-0.00319579,-0.00426106
1704704260828278,0.00000000,-0.03830723,10.36689377,0.05965481,0.00532632,-0.00745685
1704704260830254,-0.01436521,-0.04309563,10.38604736,0.03941479,0.00319579,-0.00852212
1704704260832233,0.00957681,-0.04788403,10.37647057,0.02130529,-0.00852212,-0.01171791
1704704260834251,-0.00957681,-0.05267244,10.39083576,0.02556635,-0.01065264,-0.01384844
1704704260836280,-0.00478840,-0.05267244,10.40520096,0.02663161,-0.00745685,-0.01278317
1704704260838385,0.00957681,-0.05746084,10.39562416,0.02024002,-0.01384844,-0.00852212
1704704260840291,-0.00957681,-0.05267244,10.42435455,0.00745685,-0.02343582,-0.01704423
1704704260842295,0.01915361,-0.06224924,10.42435455,-0.00426106,-0.02343582,-0.01278317
1704704260844272,0.00957681,-0.06703765,10.42435455,-0.01278317,-0.02024002,-0.01171791
1704704260846270,0.00478840,-0.05267244,10.44829655,-0.01597897,-0.02237055,-0.00852212
1704704260848266,0.02873042,-0.07182605,10.43871975,-0.01810949,-0.02450108,-0.01171791
1704704260850280,0.00478840,-0.06224924,10.45308495,-0.01917476,-0.01491370,-0.01278317
1704704260852246,0.01915361,-0.05267244,10.45787334,-0.01810949,-0.01171791,-0.01597897
1704704260854237,0.03351882,-0.08140286,10.44350815,-0.02130529,-0.02450108,-0.01917476
1704704260856255,0.00957681,-0.04788403,10.46745014,-0.02130529,-0.02876214,-0.01917476
1704704260858241,0.03830723,-0.06703765,10.45787334,-0.02556635,-0.02556635,-0.01810949
1704704260860279,0.03351882,-0.07182605,10.45787334,-0.01917476,-0.02237055,-0.01171791
1704704260862241,0.02873042,-0.02394202,10.46745014,-0.01171791,-0.01810949,-0.01384844
1704704260864259,0.05746084,-0.07661445,10.45308495,-0.01278317,-0.01278317,-0.01810949
1704704260866281,0.03351882,-0.03830723,10.46745014,-0.01704423,-0.01278317,-0.01171791
1704704260868273,0.04309563,-0.02394202,10.46266174,-0.01171791,-0.00958738,-0.00852212
1704704260870254,0.05267244,-0.07661445,10.45308495,0.00106526,-0.00213053,-0.01065264
1704704260872243,0.03351882,-0.00957681,10.46266174,-0.00106526,-0.00426106,-0.01065264
1704704260874350,0.05746084,-0.03830723,10.44829655,0.00319579,0.00000000,-0.00639159
1704704260876249,0.04788403,-0.05267244,10.44829655,-0.00106526,0.00745685,-0.01384844
1704704260878275,0.04309563,0.00957681,10.45308495,-0.00852212,0.01384844,-0.01384844
1704704260880302,0.06703765,-0.05746084,10.43871975,-0.00745685,0.02450108,-0.01278317
1704704260882255,0.04309563,-0.01436521,10.44829655,-0.00958738,0.03728426,0.00000000
1704704260884264,0.04309563,0.01436521,10.44829655,0.00000000,0.03834952,-0.00319579
1704704260886289,0.05746084,-0.06224924,10.43393135,-0.00213053,0.03089267,0.00213053
1704704260888252,0.04309563,0.01436521,10.44350815,0.00000000,0.04261058,-0.00106526
1704704260890274,0.05267244,0.01436521,10.43871975,0.00532632,0.03834952,0.00106526
1704704260892249,0.05267244,-0.03830723,10.42435455,0.03089267,0.04687164,-0.00319579
1704704260894273,0.04788403,0.00957681,10.42435455,0.02982740,0.04580637,-0.00639159
1704704260896236,0.06224924,-0.05267244,10.40998936,0.02663161,0.04474111,-0.00426106
1704704260898291,0.05267244,-0.05267244,10.40520096,0.02663161,0.03728426,-0.00745685
1704704260900301,0.05746084,0.00000000,10.40520096,0.03408846,0.03728426,-0.00426106
1704704260902217,0.05267244,-0.05746084,10.39083576,0.04048005,0.03515373,-0.00426106
1704704260904260,0.04788403,-0.02394202,10.39083576,0.04048005,0.03089267,0.00000000
1704704260906272,0.05746084,0.00957681,10.39562416,0.03941479,0.02556635,0.00000000
1704704260908259,0.05267244,-0.03351882,10.37647057,0.04793690,0.01917476,0.00745685
1704704260910291,0.05746084,0.01436521,10.37168217,0.05006743,0.00745685,0.01278317
1704704260912245,0.06224924,-0.01915361,10.37168217,0.03941479,0.00000000,0.01278317
1704704260914243,0.06224924,-0.04309563,10.35731697,0.04793690,0.00745685,0.01065264
1704704260916316,0.07182605,0.00000000,10.35252857,0.07243798,0.00639159,0.01384844
1704704260918279,0.06703765,-0.04309563,10.33816338,0.06924219,-0.00852212,0.01491370
1704704260920238,0.07182605,0.01436521,10.32858658,0.07030746,-0.01065264,0.01597897
1704704260922314,0.07661445,0.00957681,10.32858658,0.07137272,-0.00745685,0.02024002
1704704260924294,0.08140286,-0.02873042,10.30943298,0.08415589,-0.00532632,0.02130529
1704704260926299,0.08619126,0.00957681,10.30464458,0.10759171,-0.02024002,0.02237055
1704704260928270,0.08619126,-0.01436521,10.30464458,0.10226539,-0.02663161,0.01810949
1704704260930259,0.08619126,-0.03351882,10.29506683,0.09480853,-0.03302320,0.01704423
1704704260932247,0.09097967,0.01436521,10.29506683,0.09161274,-0.03728426,0.02024002
1704704260934274,0.09576806,-0.03830723,10.29506683,0.09587380,-0.03195793,0.02982740
1704704260936293,0.09576806,-0.00957681,10.27591324,0.08841695,-0.03941479,0.03834952
1704704260938241,0.10055647,0.00478840,10.29027843,0.08415589,-0.04793690,0.04793690
1704704260940277,0.10534488,-0.04309563,10.29027843,0.07669904,-0.05113269,0.03728426
1704704260942257,0.11013328,0.00000000,10.28070164,0.06498113,-0.03621899,0.02769688
1704704260944390,0.11492168,-0.02873042,10.29506683,0.05752428,-0.03941479,0.02556635
1704704260946246,0.11971009,-0.01915361,10.27591324,0.04900216,-0.05219796,0.02450108
1704704260948267,0.11971009,-0.03351882,10.29506683,0.04048005,-0.05006743,0.01810949
1704704260950314,0.11971009,-0.05746084,10.29985619,0.03408846,-0.04793690,0.01491370
1704704260952163,0.12449849,-0.01915361,10.28070164,0.04793690,-0.05006743,0.02024002
1704704260954291,0.12449849,-0.05746084,10.29985619,0.04580637,-0.05645901,0.01384844
1704704260956267,0.12449849,-0.06224924,10.29506683,0.03515373,-0.05645901,0.00852212
1704704260958478,0.12449849,-0.02873042,10.28070164,0.02663161,-0.04900216,0.00106526
1704704260960293,0.12449849,-0.06224924,10.31422138,0.02450108,-0.05752428,0.01065264
1704704260962233,0.12449849,-0.05746084,10.30464458,0.02343582,-0.06391586,0.00852212
1704704260964275,0.12449849,-0.03351882,10.30464458,0.01597897,-0.06604639,0.00319579
1704704260966281,0.12449849,-0.06224924,10.32379818,0.00639159,-0.06072007,0.00106526
1704704260968306,0.11971009,-0.04788403,10.30464458,0.00000000,-0.05858954,0.00639159
1704704260970274,0.11492168,-0.05267244,10.32858658,-0.01171791,-0.06178534,0.00639159
1704704260972239,0.11492168,-0.07182605,10.33337498,-0.02024002,-0.06285060,0.00106526
1704704260974279,0.11492168,-0.04788403,10.31900978,-0.01917476,-0.06391586,-0.00426106
1704704260976276,0.11013328,-0.06703765,10.34774017,-0.01810949,-0.05432849,-0.00745685
1704704260978257,0.11492168,-0.06703765,10.33337498,-0.03408846,-0.05219796,-0.00852212
1704704260980279,0.11013328,-0.05267244,10.33816338,-0.04474111,-0.06072007,-0.01491370
1704704260982247,0.11013328,-0.08140286,10.36210537,-0.03621899,-0.06498113,-0.01384844
1704704260984264,0.11013328,-0.07182605,10.33816338,-0.02982740,-0.05539375,-0.00958738
1704704260986279,0.11013328,-0.06703765,10.35252857,-0.02024002,-0.04687164,-0.00745685
1704704260988271,0.11013328,-0.07661445,10.35252857,-0.01491370,-0.04687164,-0.00852212
1704704260990277,0.11013328,-0.06224924,10.33816338,0.00106526,-0.04474111,0.00319579
1704704260992264,0.10534488,-0.06703765,10.36689377,0.00426106,-0.03728426,-0.00852212
1704704260994357,0.10534488,-0.06703765,10.34774017,0.00319579,-0.04154531,-0.01384844
1704704260996248,0.10055647,-0.06224924,10.36210537,-0.00213053,-0.04900216,-0.02237055
1704704260998335,0.10055647,-0.06224924,10.35252857,0.00106526,-0.04793690,-0.02876214
1704704261000332,0.10055647,-0.05746084,10.34774017,0.00426106,-0.04793690,-0.03302320
1704704261002216,0.09576806,-0.04788403,10.36689377,0.00532632,-0.05752428,-0.01917476
1704704261004237,0.09576806,-0.04788403,10.36210537,0.00958738,-0.06178534,-0.01704423
1704704261006296,0.09576806,-0.04788403,10.35252857,0.01065264,-0.05432849,-0.01597897
1704704261008409,0.09097967,-0.03830723,10.38125896,0.00106526,-0.05326322,-0.01810949
1704704261010287,0.09097967,-0.04309563,10.36689377,-0.01491370,-0.05752428,-0.01597897
1704704261012231,0.09097967,-0.04309563,10.37168217,-0.00426106,-0.06498113,-0.01491370
1704704261014252,0.09097967,-0.03351882,10.38125896,0.00106526,-0.06391586,-0.01171791
1704704261016292,0.08619126,-0.04788403,10.36689377,-0.00639159,-0.06711166,-0.00532632
1704704261018288,0.09097967,-0.03830723,10.38604736,-0.00319579,-0.06817693,-0.00639159
1704704261020252,0.09097967,-0.04309563,10.38125896,0.00426106,-0.07030746,-0.00852212
1704704261022221,0.08619126,-0.05267244,10.37168217,-0.00745685,-0.07350325,-0.00745685
1704704261024400,0.09576806,-0.02873042,10.39562416,-0.01278317,-0.08096009,-0.00319579
1704704261026271,0.09097967,-0.05746084,10.37647057,0.00213053,-0.08735169,0.00000000
1704704261028319,0.09576806,-0.05267244,10.38604736,0.00639159,-0.09267800,0.00319579
1704704261030250,0.09576806,-0.03351882,10.39562416,-0.00639159,-0.10013486,0.00532632
1704704261032245,0.09097967,-0.06224924,10.38125896,-0.00106526,-0.09906960,0.00745685
1704704261034309,0.10055647,-0.03351882,10.39562416,0.00532632,-0.10226539,0.00852212
1704704261036286,0.09576806,-0.04309563,10.38604736,-0.00426106,-0.11185277,-0.00106526
1704704261038273,0.10055647,-0.05267244,10.37647057,-0.02024002,-0.12889700,0.00745685
1704704261040334,0.10534488,-0.01915361,10.38604736,-0.02237055,-0.13102752,0.01065264
1704704261042261,0.09576806,-0.05267244,10.36689377,-0.00319579,-0.12037488,0.00319579
1704704261044240,0.11013328,-0.03830723,10.36210537,0.00852212,-0.12463594,-0.00532632
1704704261046253,0.10534488,-0.01915361,10.35731697,0.00426106,-0.13315806,-0.00213053
1704704261048257,0.11013328,-0.04788403,10.34295177,-0.00852212,-0.13848437,0.00319579
1704704261050290,0.10534488,-0.01915361,10.33816338,-0.00426106,-0.13315806,0.00426106
1704704261052306,0.09576806,-0.04788403,10.31900978,0.00106526,-0.12783173,0.01065264
1704704261054266,0.11013328,-0.02394202,10.31422138,0.00213053,-0.12570120,0.01597897
1704704261056271,0.09576806,-0.02873042,10.30943298,-0.01065264,-0.12676647,0.01491370
1704704261058353,0.10055647,-0.04788403,10.30464458,-0.02024002,-0.12783173,0.01171791
1704704261060316,0.10055647,-0.01436521,10.29985619,-0.00639159,-0.12037488,0.01704423
1704704261062216,0.08140286,-0.03830723,10.29985619,-0.00106526,-0.11291803,0.02024002
1704704261064271,0.09576806,-0.03830723,10.29506683,-0.00639159,-0.10652644,0.01491370
1704704261066283,0.08140286,-0.01915361,10.29985619,-0.01278317,-0.10439591,0.01704423
1704704261068275,0.07661445,-0.05746084,10.29506683,-0.01384844,-0.09374327,0.01917476
1704704261070283,0.08140286,-0.03351882,10.29027843,-0.01384844,-0.08309063,0.02024002
1704704261072208,0.06224924,-0.03830723,10.29506683,-0.01810949,-0.07989483,0.01491370
1704704261074394,0.07661445,-0.06703765,10.29027843,-0.02130529,-0.07456851,0.01810949
1704704261076261,0.06703765,-0.03830723,10.29027843,-0.01171791,-0.05858954,0.02237055
1704704261078321,0.05746084,-0.07182605,10.29506683,-0.01171791,-0.05645901,0.01278317
1704704261080253,0.07182605,-0.07661445,10.28549004,-0.01704423,-0.05645901,0.01384844
1704704261082345,0.04788403,-0.05267244,10.29027843,-0.02556635,-0.05326322,0.01597897
1704704261084342,0.05746084,-0.09576806,10.29027843,-0.01917476,-0.03728426,0.01597897
1704704261086303,0.05746084,-0.07661445,10.27591324,-0.01491370,-0.03515373,0.01384844
1704704261088252,0.03830723,-0.08140286,10.28549004,-0.02450108,-0.02556635,0.00852212
1704704261090197,0.04788403,-0.11492168,10.27112484,-0.03408846,-0.02450108,0.01278317
1704704261092258,0.03351882,-0.07661445,10.26154804,-0.02556635,-0.02450108,0.00745685
1704704261094304,0.03351882,-0.10534488,10.26154804,-0.02237055,-0.01384844,0.01278317
1704704261096569,0.03830723,-0.10534488,10.24239445,-0.01278317,-0.00319579,0.00532632
1704704261098274,0.01915361,-0.07661445,10.24239445,-0.02450108,-0.00639159,0.00213053
1704704261100435,0.02873042,-0.11971009,10.23760605,-0.02024002,-0.00532632,0.00213053
1704704261102237,0.02394202,-0.08619126,10.21845245,-0.00319579,0.00639159,0.00426106
1704704261104373,0.01436521,-0.09097967,10.23281765,0.00745685,0.00426106,0.00106526
1704704261106279,0.02873042,-0.11971009,10.21845245,0.01278317,0.00319579,0.00213053
1704704261108308,0.01436521,-0.06703765,10.20887566,0.01917476,0.01384844,-0.00532632
1704704261110271,0.01436521,-0.10055647,10.21366405,0.03515373,0.02130529,-0.00639159
1704704261112232,0.01436521,-0.08619126,10.18972206,0.03515373,0.02343582,0.00319579
1704704261114253,0.00000000,-0.05746084,10.19929886,0.03728426,0.02237055,0.01171791
1704704261116341,0.00957681,-0.10534488,10.19929886,0.03834952,0.03302320,-0.00106526
1704704261118271,0.00478840,-0.05746084,10.18493366,0.02663161,0.04261058,-0.00319579
1704704261120282,0.00000000,-0.06703765,10.19929886,0.03408846,0.04261058,-0.00106526
1704704261122235,0.00478840,-0.09097967,10.18972206,0.03302320,0.03621899,-0.00213053
1704704261124285,-0.00957681,-0.04309563,10.18972206,0.02876214,0.03834952,-0.00213053
1704704261126280,-0.00478840,-0.08619126,10.20408726,0.01917476,0.04793690,-0.00319579
1704704261128280,-0.00478840,-0.06703765,10.18972206,0.01171791,0.03941479,-0.00213053
1704704261130263,-0.01436521,-0.04788403,10.20408726,0.01704423,0.02769688,0.00106526
1704704261132265,-0.00478840,-0.09576806,10.20887566,0.02237055,0.02769688,0.00106526
1704704261134441,-0.00478840,-0.04788403,10.19929886,0.00852212,0.02769688,0.00000000
1704704261136316,-0.00957681,-0.06703765,10.21845245,0.00319579,0.02450108,0.00852212
1704704261138278,0.00478840,-0.07661445,10.19929886,0.00745685,0.01597897,0.00958738
1704704261140393,0.00478840,-0.03830723,10.20887566,0.01597897,0.00745685,0.00213053
1704704261142257,0.00957681,-0.08140286,10.22324085,0.00000000,0.00745685,0.01278317
1704704261144397,0.01915361,-0.04788403,10.20408726,-0.00106526,0.00426106,0.02343582
1704704261146272,0.00957681,-0.03830723,10.22324085,0.02024002,-0.00426106,0.02237055
1704704261148297,0.02873042,-0.07182605,10.21366405,0.02343582,-0.00213053,0.02237055
1704704261150343,0.02394202,-0.02394202,10.20408726,0.00000000,0.00213053,0.01810949
1704704261152265,0.02394202,-0.05267244,10.22802925,-0.01171791,-0.01065264,0.02130529
1704704261154232,0.03351882,-0.05267244,10.20887566,0.00106526,-0.01704423,0.02024002
1704704261156251,0.01915361,-0.02394202,10.21366405,0.00106526,-0.00532632,0.01704423
1704704261158440,0.03351882,-0.05746084,10.22324085,-0.01704423,0.00213053,0.00745685
1704704261160257,0.02873042,-0.02873042,10.19929886,-0.02237055,-0.00106526,0.01171791
1704704261162366,0.01915361,-0.03830723,10.22802925,-0.02343582,-0.00852212,0.01278317
1704704261164232,0.02873042,-0.06703765,10.21845245,-0.02876214,-0.00639159,0.00319579
1704704261166274,0.01436521,-0.02873042,10.21366405,-0.03408846,-0.00319579,0.00213053
1704704261168328,0.01915361,-0.05746084,10.23760605,-0.02237055,0.00213053,-0.00106526
1704704261170293,0.02394202,-0.05746084,10.21366405,-0.02663161,0.00639159,-0.00426106
1704704261172213,0.00957681,-0.03830723,10.23760605,-0.03941479,0.01065264,-0.01278317
1704704261174297,0.01915361,-0.07182605,10.24239445,-0.04154531,0.00426106,-0.00213053
1704704261176286,0.00478840,-0.04309563,10.22802925,-0.01704423,0.00000000,0.00319579
1704704261178462,0.00478840,-0.05746084,10.25675964,-0.00532632,0.01704423,0.00426106
1704704261180268,0.00957681,-0.06224924,10.23760605,-0.03515373,0.03089267,0.00426106
1704704261182288,0.00000000,-0.03830723,10.23760605,-0.04367584,0.02663161,0.01597897
1704704261184311,0.00478840,-0.06224924,10.25675964,-0.01917476,0.01597897,0.02024002
1704704261186257,0.00000000,-0.05267244,10.23281765,-0.01917476,0.03089267,0.01810949
1704704261188279,0.00000000,-0.03830723,10.25197124,-0.04154531,0.05006743,0.01597897
1704704261190328,0.00478840,-0.05746084,10.25197124,-0.05539375,0.04687164,0.02130529
1704704261192254,-0.00478840,-0.04309563,10.23760605,-0.04048005,0.04474111,0.01917476
1704704261194385,0.00000000,-0.04788403,10.26633644,-0.03515373,0.05006743,0.01917476
1704704261196252,-0.00957681,-0.04788403,10.25197124,-0.04261058,0.05219796,0.01917476
1704704261198425,-0.01436521,-0.02873042,10.26154804,-0.04261058,0.05752428,0.02556635
1704704261200287,-0.00957681,-0.03830723,10.27591324,-0.03728426,0.06817693,0.01704423
1704704261202369,-0.01915361,-0.02873042,10.25675964,-0.02450108,0.06924219,0.00852212
1704704261204269,-0.01436521,-0.01436521,10.28070164,-0.02876214,0.06711166,0.01597897
1704704261206273,-0.02873042,-0.01915361,10.28070164,-0.03089267,0.07456851,0.01278317
1704704261208304,-0.02873042,-0.00957681,10.27112484,-0.01278317,0.08096009,0.01491370
1704704261210263,-0.02394202,-0.00478840,10.28549004,-0.00532632,0.08309063,0.00852212
1704704261212252,-0.03351882,-0.00478840,10.26633644,-0.01065264,0.08202536,0.01384844
1704704261214332,-0.02394202,0.00957681,10.27591324,-0.00958738,0.07882957,0.01597897
1704704261216230,-0.03351882,0.01436521,10.28070164,0.00532632,0.07669904,0.01065264
1704704261218265,-0.03830723,0.01436521,10.26154804,0.01491370,0.07563377,0.00745685
1704704261220293,-0.02873042,0.03351882,10.27112484,0.00319579,0.08202536,0.01278317
1704704261222304,-0.04309563,0.02873042,10.25675964,-0.00958738,0.08735169,0.02237055
1704704261224382,-0.03351882,0.03351882,10.25675964,0.00852212,0.08948221,0.02769688
1704704261226309,-0.03830723,0.05267244,10.26154804,0.02237055,0.08735169,0.02237055
1704704261228288,-0.04788403,0.04309563,10.24718285,0.01810949,0.09906960,0.02237055
1704704261230230,-0.03830723,0.04788403,10.24718285,0.00958738,0.11185277,0.02343582
1704704261232262,-0.03830723,0.07182605,10.25197124,0.01278317,0.11504856,0.02343582
1704704261234377,-0.05267244,0.04788403,10.23281765,0.02237055,0.11078750,0.01810949
1704704261236342,-0.03830723,0.08140286,10.24239445,0.02024002,0.11611383,0.02663161
1704704261238280,-0.04788403,0.08140286,10.23281765,0.01810949,0.12250541,0.02663161
1704704261240348,-0.03830723,0.05746084,10.21366405,0.02450108,0.12889700,0.03195793
1704704261242260,-0.04309563,0.08619126,10.21366405,0.03728426,0.12676647,0.03621899
1704704261244282,-0.05267244,0.06703765,10.20408726,0.03195793,0.12676647,0.03089267
1704704261246273,-0.02394202,0.05746084,10.19929886,0.01278317,0.12996227,0.02556635
1704704261248260,-0.03830723,0.08140286,10.19929886,0.01597897,0.13315806,0.02343582
1704704261250352,-0.03830723,0.04309563,10.18493366,0.02876214,0.13741912,0.02130529
1704704261252267,-0.01436521,0.06224924,10.18014526,0.02130529,0.13422331,0.01917476
1704704261254239,-0.04309563,0.05746084,10.18014526,0.00319579,0.13209279,0.02450108
1704704261256299,-0.01915361,0.02873042,10.17056847,0.00958738,0.12676647,0.02982740
1704704261258312,-0.01915361,0.05746084,10.18014526,0.03515373,0.12250541,0.02130529
1704704261260291,-0.03351882,0.02394202,10.17535686,0.02663161,0.12889700,0.02450108
1704704261262220,-0.00478840,0.04788403,10.17535686,0.01384844,0.12037488,0.01917476
1704704261264341,-0.02873042,0.04309563,10.17535686,0.02130529,0.11824435,0.02343582
1704704261266241,-0.00957681,0.00478840,10.17056847,0.04900216,0.11504856,0.02024002
1704704261268303,-0.01436521,0.03830723,10.18014526,0.03302320,0.11930962,0.02130529
1704704261270284,-0.02394202,0.01915361,10.18493366,0.03089267,0.11717909,0.01384844
1704704261272236,0.01915361,0.00957681,10.17535686,0.05006743,0.11398330,0.02024002
1704704261274415,0.00000000,0.03351882,10.18014526,0.07669904,0.11398330,0.01810949
1704704261276301,0.02394202,0.00957681,10.18493366,0.06178534,0.10972223,0.01704423
1704704261278280,0.03351882,0.02394202,10.18493366,0.05539375,0.10865697,0.01597897
1704704261280249,-0.01915361,0.02394202,10.19929886,0.06924219,0.10759171,0.01597897
1704704261282264,0.02394202,0.00957681,10.19929886,0.08948221,0.10972223,0.00639159
1704704261284263,0.02873042,0.02873042,10.19929886,0.08309063,0.10120012,0.01384844
1704704261286260,-0.00478840,0.02394202,10.21845245,0.06711166,0.08415589,0.01917476
1704704261288268,0.03830723,0.02873042,10.21845245,0.08735169,0.08841695,0.01704423
1704704261290294,0.00478840,0.02873042,10.22324085,0.09374327,0.09054748,0.00958738
1704704261292244,0.03351882,0.02873042,10.22802925,0.08735169,0.08841695,0.01065264
1704704261294297,0.05267244,0.03351882,10.22324085,0.08309063,0.08096009,0.00745685
1704704261296258,0.00000000,0.03830723,10.23760605,0.09054748,0.08096009,0.01491370
1704704261298300,0.06703765,0.02873042,10.23281765,0.10546118,0.07563377,0.00639159
1704704261300338,0.02394202,0.03351882,10.23281765,0.08948221,0.07456851,0.01491370
1704704261302273,0.02394202,0.03830723,10.24239445,0.07137272,0.07776430,0.01810949
1704704261304257,0.06703765,0.02394202,10.22324085,0.06924219,0.08415589,0.02556635
1704704261306272,0.01436521,0.03830723,10.23281765,0.07350325,0.08096009,0.01597897
1704704261308294,0.05267244,0.03351882,10.22802925,0.07137272,0.07563377,0.01810949
1704704261310236,0.02873042,0.01915361,10.21366405,0.06711166,0.06498113,0.01917476
1704704261312239,0.03351882,0.02873042,10.21845245,0.07882957,0.07563377,0.02343582
1704704261314259,0.04788403,0.01436521,10.20408726,0.07243798,0.07456851,0.01597897
1704704261316319,-0.00957681,0.01915361,10.19929886,0.06604639,0.06178534,0.01597897
1704704261318274,0.01436521,0.02873042,10.19929886,0.07563377,0.05326322,0.01917476
1704704261320292,0.01436521,-0.00478840,10.18493366,0.07669904,0.04900216,0.01065264
1704704261322243,-0.02394202,0.02873042,10.18493366,0.07030746,0.05432849,0.01171791
1704704261324279,0.01915361,0.00957681,10.17535686,0.06178534,0.05006743,0.01384844
1704704261326288,-0.01436521,-0.00478840,10.16099167,0.06711166,0.04367584,0.01810949
1704704261328311,-0.01436521,0.03351882,10.16578007,0.07350325,0.03834952,0.01278317
1704704261330250,0.00478840,-0.00957681,10.15141487,0.07030746,0.03515373,0.02556635
1704704261332256,-0.02394202,0.01915361,10.14662647,0.06285060,0.02663161,0.02556635
1704704261334299,-0.00478840,0.02394202,10.13704967,0.06711166,0.02663161,0.02769688
1704704261336386,-0.01436521,-0.00957681,10.11789608,0.07243798,0.02876214,0.01384844
1704704261338236,-0.02394202,0.04309563,10.11789608,0.06604639,0.01491370,0.01810949
1704704261340300,-0.00478840,0.00478840,10.11310768,0.05645901,0.01065264,0.01491370
1704704261342277,-0.02394202,0.01436521,10.09874249,0.06285060,0.02343582,0.01917476
1704704261344244,-0.00957681,0.01436521,10.08916569,0.07243798,0.02769688,0.02024002
1704704261346263,-0.00957681,-0.00478840,10.07958889,0.06178534,0.02450108,0.02450108
1704704261348181,-0.02394202,0.04309563,10.07001209,0.05113269,0.01278317,0.01810949
1704704261350299,-0.01436521,-0.00478840,10.07001209,0.06285060,0.01597897,0.01065264
1704704261352280,-0.01915361,0.00957681,10.05564690,0.05858954,0.02663161,0.00745685
1704704261354260,-0.02873042,0.05267244,10.05564690,0.05432849,0.03089267,0.01278317
1704704261356289,-0.01915361,0.00957681,10.04128170,0.05752428,0.01597897,0.01491370
1704704261358332,-0.02873042,0.03351882,10.03649330,0.06817693,0.02237055,0.01065264
1704704261360507,-0.03351882,0.03830723,10.04607010,0.05539375,0.03408846,0.00958738
1704704261362240,-0.02394202,0.02394202,10.01733971,0.04687164,0.02450108,0.01278317
1704704261364247,-0.03351882,0.04309563,10.01733971,0.04900216,0.02343582,0.01384844
1704704261366318,-0.02394202,0.00957681,10.02212811,0.05219796,0.03089267,0.00958738
1704704261368271,-0.02394202,0.00957681,9.99818611,0.04900216,0.03195793,0.01278317
1704704261370305,-0.03351882,0.03830723,10.00776291,0.05113269,0.02769688,0.01491370
1704704261372246,-0.01915361,0.00000000,10.00297451,0.05432849,0.01917476,0.02024002
1704704261374347,-0.03351882,0.02873042,9.97903252,0.06285060,0.02876214,0.01065264
1704704261376296,-0.02873042,0.03351882,9.99818611,0.06178534,0.03621899,0.00958738
1704704261378284,-0.01915361,0.00957681,9.97903252,0.06924219,0.04048005,0.00639159
1704704261380278,-0.03830723,0.04788403,9.97903252,0.07882957,0.02876214,0.01491370
1704704261382294,-0.02394202,0.02394202,9.98860931,0.08522116,0.03195793,0.01171791
1704704261384280,-0.03351882,0.02394202,9.96945572,0.07030746,0.03621899,0.01704423
1704704261386267,-0.03830723,0.04788403,9.98382092,0.07563377,0.03834952,0.02663161
1704704261388252,-0.02873042,0.02394202,9.97903252,0.07350325,0.04474111,0.02556635
1704704261390296,-0.04788403,0.04309563,9.96945572,0.07030746,0.04474111,0.01597897
1704704261392326,-0.03830723,0.05267244,9.98382092,0.06924219,0.04580637,0.01384844
1704704261394277,-0.05267244,0.03830723,9.95987892,0.08096009,0.05752428,0.01171791
1704704261396281,-0.05267244,0.05746084,9.96945572,0.08415589,0.06604639,0.00426106
1704704261398328,-0.04309563,0.04309563,9.96945572,0.08415589,0.06072007,0.00852212
1704704261400314,-0.05746084,0.03830723,9.95509052,0.07350325,0.06285060,0.01065264
1704704261402340,-0.05267244,0.06224924,9.96945572,0.06178534,0.06711166,0.00319579
1704704261404248,-0.05267244,0.03830723,9.95987892,0.07137272,0.07137272,-0.00532632
1704704261406361,-0.06224924,0.05267244,9.95509052,0.06498113,0.06924219,0.00852212
1704704261408303,-0.04309563,0.05746084,9.95987892,0.06817693,0.07350325,0.00639159
1704704261410401,-0.06224924,0.03830723,9.95987892,0.05965481,0.07243798,-0.00106526
1704704261412218,-0.04788403,0.05746084,9.96466732,0.05645901,0.07563377,0.00852212
1704704261414255,-0.04788403,0.04309563,9.96466732,0.05858954,0.07882957,0.00639159
1704704261416319,-0.06224924,0.04309563,9.96466732,0.07350325,0.07137272,0.00852212
1704704261418270,-0.03830723,0.05267244,9.96945572,0.07563377,0.06711166,0.00852212
1704704261420289,-0.06224924,0.04309563,9.97903252,0.08415589,0.07456851,0.00852212
1704704261422255,-0.04788403,0.05746084,9.97424412,0.09906960,0.07989483,0.00639159
1704704261424282,-0.04309563,0.05746084,9.98382092,0.09054748,0.07669904,0.01597897
1704704261426286,-0.04788403,0.05746084,9.99339771,0.08096009,0.07456851,0.01171791
1704704261428279,-0.02873042,0.06224924,9.98860931,0.08841695,0.07456851,0.00532632
1704704261430233,-0.03830723,0.05267244,10.00297451,0.09800433,0.07882957,0.00532632
1704704261432260,-0.02873042,0.05746084,10.00776291,0.08522116,0.07563377,0.00958738
1704704261434292,-0.02394202,0.05746084,10.01733971,0.07350325,0.07669904,0.00852212
1704704261436469,-0.02873042,0.04788403,10.03649330,0.07882957,0.08096009,0.00532632
1704704261438281,-0.00957681,0.04788403,10.03170490,0.08415589,0.08415589,0.00639159
1704704261440311,-0.01436521,0.04309563,10.04128170,0.07350325,0.08309063,0.00532632
1704704261442272,-0.00957681,0.04788403,10.05085850,0.06178534,0.07350325,-0.00106526
1704704261444267,-0.00478840,0.03351882,10.04607010,0.06498113,0.06924219,-0.00106526
1704704261446275,-0.00478840,0.03830723,10.06522369,0.06285060,0.07563377,-0.00213053
1704704261448284,0.00478840,0.03830723,10.06043530,0.05965481,0.07137272,-0.00213053
1704704261450276,0.00957681,0.02873042,10.07001209,0.05326322,0.05965481,0.00745685
1704704261452266,0.01436521,0.03830723,10.08916569,0.05858954,0.05858954,0.00426106
1704704261454255,0.01436521,0.02394202,10.08437729,0.07137272,0.05113269,0.00000000
1704704261456269,0.02873042,0.03351882,10.10353088,0.08202536,0.04900216,0.00426106
1704704261458306,0.02394202,0.04309563,10.10831928,0.07137272,0.04793690,0.00213053
1704704261460316,0.03830723,0.02394202,10.11310768,0.07456851,0.03728426,0.00213053
1704704261462246,0.04788403,0.05267244,10.13704967,0.07563377,0.03089267,0.01384844
1704704261464305,0.02873042,0.03351882,10.13704967,0.06604639,0.03621899,0.01491370
1704704261466300,0.06224924,0.03830723,10.15141487,0.07030746,0.02556635,0.00639159
1704704261468267,0.04309563,0.05267244,10.16578007,0.08309063,0.02024002,0.00426106
1704704261470298,0.04788403,0.03351882,10.17535686,0.08096009,0.02130529,0.00958738
1704704261472236,0.07182605,0.06224924,10.19451046,0.07350325,0.01704423,0.00852212
1704704261474326,0.02873042,0.04309563,10.20408726,0.06817693,0.01384844,0.00426106
1704704261476270,0.08619126,0.05267244,10.22324085,0.06391586,0.01065264,0.00426106
1704704261478309,0.05746084,0.05746084,10.23281765,0.06178534,0.01065264,0.00319579
1704704261480286,0.04309563,0.02873042,10.24239445,0.05432849,0.00639159,0.00745685
1704704261482255,0.10055647,0.04788403,10.25197124,0.05432849,0.00745685,0.00745685
1704704261484323,0.02394202,0.04309563,10.26633644,0.06072007,-0.00213053,0.00852212
1704704261486307,0.08619126,0.03351882,10.27112484,0.05965481,0.00745685,0.00426106
1704704261488243,0.06703765,0.04309563,10.28549004,0.06924219,0.00000000,0.01171791
1704704261490300,0.02873042,0.03830723,10.29506683,0.06817693,-0.00106526,0.00639159
1704704261492270,0.10534488,0.03830723,10.29027843,0.07669904,-0.01810949,0.00319579
1704704261494303,0.01436521,0.04788403,10.29985619,0.06817693,-0.02024002,0.00532632
1704704261496273,0.07661445,0.04309563,10.30464458,0.07563377,-0.02024002,0.00532632
1704704261498304,0.06224924,0.04309563,10.29985619,0.07882957,-0.02876214,0.00319579
1704704261500266,0.01915361,0.06224924,10.30943298,0.08628642,-0.03089267,0.00426106
1704704261502267,0.09576806,0.04309563,10.29985619,0.07989483,-0.04261058,0.00639159
1704704261504303,0.00957681,0.06703765,10.30464458,0.06711166,-0.03941479,0.00532632
1704704261506234,0.05746084,0.07182605,10.30943298,0.07243798,-0.05432849,0.01171791
1704704261508337,0.05746084,0.05267244,10.29506683,0.08735169,-0.04580637,0.01065264
1704704261510299,0.00000000,0.09576806,10.30464458,0.06924219,-0.04367584,0.01065264
1704704261512217,0.07182605,0.06224924,10.29506683,0.05858954,-0.04261058,0.01278317
1704704261514360,0.00478840,0.07661445,10.29027843,0.07137272,-0.05539375,0.00639159
1704704261516313,0.02394202,0.10055647,10.29985619,0.07030746,-0.05326322,0.00319579
1704704261518397,0.04309563,0.05267244,10.27591324,0.05539375,-0.04474111,0.00426106
1704704261520298,0.01436521,0.10534488,10.28549004,0.06924219,-0.04793690,0.00852212
1704704261522249,0.03351882,0.07661445,10.27591324,0.07776430,-0.04793690,0.00106526
1704704261524344,0.00000000,0.07661445,10.26633644,0.07989483,-0.05219796,0.00000000
1704704261526266,-0.00478840,0.11971009,10.28549004,0.06924219,-0.06072007,0.00106526
1704704261528302,0.00000000,0.05267244,10.26633644,0.06391586,-0.05539375,-0.00106526
1704704261530294,-0.02873042,0.10055647,10.27112484,0.06817693,-0.04793690,-0.00426106
1704704261532252,-0.01436521,0.07661445,10.27591324,0.06817693,-0.05326322,0.00319579
1704704261534277,-0.02873042,0.04788403,10.25675964,0.06072007,-0.05645901,0.00000000
1704704261536299,-0.03830723,0.09576806,10.27591324,0.06924219,-0.05219796,0.00000000
1704704261538257,-0.03830723,0.03830723,10.26154804,0.07137272,-0.05645901,-0.00106526
1704704261540298,-0.04309563,0.06703765,10.25675964,0.06285060,-0.04900216,0.00106526
1704704261542265,-0.05267244,0.07182605,10.26633644,0.06285060,-0.04900216,-0.00213053
1704704261544272,-0.04309563,0.02394202,10.24239445,0.06924219,-0.05006743,-0.00639159
1704704261546278,-0.05267244,0.07661445,10.25197124,0.07563377,-0.04793690,0.00213053
1704704261548274,-0.04788403,0.03351882,10.24718285,0.05219796,-0.04900216,0.00745685
1704704261550283,-0.03351882,0.03351882,10.22802925,0.04687164,-0.05539375,0.00000000
1704704261552301,-0.05746084,0.05746084,10.23281765,0.05858954,-0.04154531,-0.00106526
1704704261554244,-0.03830723,0.00957681,10.21366405,0.05113269,-0.04261058,-0.00319579
1704704261556343,-0.04309563,0.04788403,10.20408726,0.03941479,-0.04687164,-0.00426106
1704704261558300,-0.03351882,0.00957681,10.19451046,0.05752428,-0.04474111,-0.01704423
1704704261560296,-0.02394202,0.01436521,10.18014526,0.06604639,-0.03515373,-0.01278317
1704704261562262,-0.05746084,0.05267244,10.18493366,0.07030746,-0.01810949,-0.01065264
1704704261564344,-0.03351882,0.01915361,10.18014526,0.06604639,-0.02556635,-0.00958738
1704704261566327,-0.03830723,0.02394202,10.16578007,0.07563377,-0.02343582,-0.00426106
1704704261568294,-0.06224924,0.04309563,10.17056847,0.09161274,-0.00532632,-0.00319579
1704704261570259,-0.02394202,0.00957681,10.15141487,0.08096009,0.00213053,-0.00213053
1704704261572229,-0.06224924,0.03351882,10.14183807,0.06604639,0.00319579,-0.00213053
1704704261574311,-0.04788403,0.02873042,10.14662647,0.07456851,0.00745685,0.00426106
1704704261576296,-0.03830723,0.00957681,10.11789608,0.08309063,0.02130529,0.00000000
1704704261578298,-0.07182605,0.03830723,10.11789608,0.07882957,0.02237055,-0.00106526
1704704261580296,-0.02873042,0.01436521,10.10353088,0.06924219,0.02450108,0.00426106
1704704261582260,-0.06224924,0.00957681,10.08437729,0.06285060,0.03089267,-0.00745685
1704704261584288,-0.05746084,0.03351882,10.08916569,0.07030746,0.03302320,-0.00852212
1704704261586295,-0.03830723,0.00000000,10.07001209,0.06817693,0.03089267,-0.00426106
1704704261588269,-0.07182605,0.01915361,10.05564690,0.05752428,0.03728426,-0.00319579
1704704261590320,-0.03830723,0.01436521,10.05085850,0.05219796,0.03941479,-0.01171791
1704704261592270,-0.05746084,-0.00478840,10.02212811,0.05006743,0.04367584,-0.00639159
1704704261594448,-0.05267244,0.02394202,10.01733971,0.04687164,0.04900216,-0.00852212
1704704261596259,-0.05746084,-0.00957681,9.99818611,0.05113269,0.04367584,-0.00532632
1704704261598288,-0.06224924,0.00478840,9.98382092,0.05219796,0.04367584,-0.00106526
1704704261600367,-0.03351882,0.01915361,9.98382092,0.05645901,0.04154531,-0.00106526
1704704261602273,-0.05267244,-0.00957681,9.96945572,0.05326322,0.05006743,-0.01171791
1704704261604254,-0.04309563,0.01436521,9.95509052,0.03515373,0.05219796,0.00106526
1704704261606292,-0.02873042,0.00000000,9.95509052,0.03195793,0.04580637,0.00000000
1704704261608307,-0.05267244,-0.00957681,9.93593693,0.03728426,0.03834952,-0.00213053
1704704261610275,-0.02394202,0.00478840,9.92636013,0.03089267,0.04580637,-0.00745685
1704704261612272,-0.03351882,-0.02394202,9.92157173,0.01704423,0.04474111,-0.01065264
1704704261614334,-0.03351882,-0.01436521,9.90241814,0.01597897,0.04261058,-0.00639159
1704704261616414,-0.01436521,-0.01915361,9.90720654,0.00639159,0.04261058,-0.00639159
1704704261618289,-0.03351882,-0.02873042,9.89762974,-0.00426106,0.03834952,-0.00852212
1704704261620363,-0.01436521,-0.01436521,9.88326454,0.00000000,0.03515373,-0.00106526
1704704261622246,-0.01436521,-0.03351882,9.88805294,-0.00106526,0.04048005,-0.00319579
1704704261624301,-0.01915361,-0.01915361,9.87368774,-0.01065264,0.04900216,-0.00426106
1704704261626327,-0.00478840,-0.02394202,9.86889935,-0.00745685,0.04048005,-0.01065264
1704704261628261,-0.01915361,-0.02873042,9.87368774,-0.01171791,0.03834952,-0.00106526
1704704261630295,-0.01436521,-0.02394202,9.85932255,-0.00745685,0.03195793,-0.00319579
1704704261632247,-0.00478840,-0.02873042,9.86411095,-0.00958738,0.03834952,-0.00426106
1704704261634265,-0.01915361,-0.01915361,9.85453415,-0.00958738,0.03408846,-0.00426106
1704704261636314,-0.00478840,-0.02394202,9.85453415,-0.00852212,0.02556635,-0.00106526
1704704261638331,-0.00957681,-0.01915361,9.85453415,-0.00639159,0.02237055,-0.00532632
1704704261640288,-0.00957681,-0.01915361,9.84495735,-0.01704423,0.02343582,0.00532632
1704704261642277,0.00478840,-0.01915361,9.84974575,-0.02130529,0.01597897,0.00532632
1704704261644268,-0.01915361,-0.00478840,9.84974575,-0.01704423,0.01384844,-0.00213053
1704704261646296,-0.01436521,-0.00957681,9.84495735,-0.00958738,0.00852212,-0.00532632
1704704261648285,0.00478840,0.00000000,9.84974575,-0.02343582,-0.00852212,0.00106526
1704704261650310,-0.02394202,0.01436521,9.85453415,-0.03089267,-0.00532632,-0.00213053
1704704261652247,0.00957681,0.00478840,9.84974575,-0.01384844,0.00000000,-0.00426106
1704704261654269,-0.00478840,0.01915361,9.85453415,-0.00532632,-0.00745685,-0.00426106
1704704261656273,-0.00957681,0.02873042,9.85453415,-0.01278317,-0.01597897,-0.00213053
1704704261658329,0.02394202,0.02394202,9.85453415,-0.01384844,-0.02130529,-0.00426106
1704704261660300,-0.02394202,0.03830723,9.86411095,-0.00852212,-0.01917476,-0.00319579
1704704261662250,0.00957681,0.03351882,9.86889935,-0.00426106,-0.02130529,0.00000000
1704704261664353,0.01436521,0.03830723,9.86889935,-0.00745685,-0.03089267,0.00319579
1704704261666315,-0.01915361,0.04309563,9.88805294,-0.00532632,-0.04261058,0.00852212
1704704261668287,0.03351882,0.02873042,9.88326454,-0.01491370,-0.03089267,0.00852212
1704704261670276,-0.00957681,0.03830723,9.89284134,-0.02024002,-0.03302320,0.00852212
1704704261672249,0.01436521,0.03830723,9.90241814,-0.01278317,-0.03728426,0.00426106
1704704261674304,0.02873042,0.02394202,9.89284134,-0.01384844,-0.03941479,0.00532632
1704704261676207,-0.01915361,0.04788403,9.91199493,-0.01171791,-0.03302320,0.00000000
1704704261678281,0.02873042,0.01436521,9.90241814,-0.02237055,-0.03302320,0.00106526
1704704261680290,0.00000000,0.02394202,9.91199493,-0.02130529,-0.02982740,0.00426106
1704704261682329,0.00478840,0.04788403,9.92636013,-0.00958738,-0.02982740,0.00213053
1704704261684313,0.03351882,0.00478840,9.91678333,-0.01384844,-0.02556635,-0.00106526
1704704261686310,-0.01436521,0.04309563,9.94072533,-0.01597897,-0.02130529,-0.00532632
1704704261688271,0.01915361,0.02873042,9.94551373,-0.01171791,-0.01597897,-0.00213053
1704704261690304,0.00000000,0.00000000,9.95030212,-0.00745685,-0.00958738,-0.00532632
1704704261692268,-0.00957681,0.05746084,9.96466732,-0.00532632,-0.00958738,0.00532632
1704704261694287,0.01436521,0.00000000,9.95509052,0.00000000,-0.00958738,0.00532632
1704704261696272,-0.01436521,0.02394202,9.97903252,-0.00426106,-0.00532632,0.00532632
1704704261698289,0.00000000,0.03830723,9.98860931,-0.00852212,-0.00532632,0.00532632
1704704261700338,-0.00478840,-0.01915361,9.97903252,-0.00745685,-0.00532632,0.00958738
1704704261702249,-0.01436521,0.05267244,10.00297451,-0.00213053,0.00000000,0.00852212
1704704261704409,-0.00478840,0.00000000,9.99818611,0.00745685,0.00000000,0.01065264
1704704261706262,-0.00957681,0.00000000,10.00776291,-0.00532632,-0.00426106,0.00213053
1704704261708323,-0.00957681,0.04788403,10.02691650,-0.01597897,-0.00532632,-0.00106526
1704704261710382,-0.01436521,-0.02873042,10.01733971,-0.01384844,-0.01278317,0.00106526
1704704261712264,-0.00478840,0.03351882,10.03170490,-0.00639159,-0.00639159,0.00000000
1704704261714337,-0.01436521,0.00957681,10.04128170,-0.01384844,0.00426106,-0.00639159
1704704261716318,-0.00957681,-0.01436521,10.04128170,-0.00745685,0.00106526,0.00000000
1704704261718291,-0.01436521,0.04309563,10.06043530,-0.00213053,0.00213053,-0.00319579
1704704261720317,-0.02394202,-0.01915361,10.06522369,0.00639159,-0.00639159,0.00000000
1704704261722233,0.00000000,0.01915361,10.07001209,-0.01597897,0.00106526,0.00319579
1704704261724317,-0.02873042,0.02394202,10.08916569,-0.02130529,-0.01065264,-0.00213053
1704704261726305,0.00000000,-0.01436521,10.08916569,-0.01704423,-0.01384844,0.00106526
1704704261728262,-0.00478840,0.03351882,10.09874249,-0.01278317,-0.02450108,0.00213053
1704704261730280,-0.02394202,0.00478840,10.11310768,-0.02237055,-0.02769688,0.00639159
1704704261732263,0.01915361,0.00478840,10.11310768,-0.02237055,-0.03195793,-0.00106526
1704704261734266,-0.02873042,0.02394202,10.13226128,-0.01278317,-0.02237055,-0.00213053
1704704261736314,0.01436521,0.00000000,10.13704967,-0.00319579,-0.02982740,-0.00426106
1704704261738259,0.00957681,0.01915361,10.13226128,0.00639159,-0.03834952,0.00000000
1704704261740328,-0.02873042,0.01915361,10.15620327,0.01065264,-0.03834952,0.00213053
1704704261742260,0.03830723,0.00478840,10.15141487,0.02130529,-0.03941479,0.00745685
1704704261744260,-0.02873042,0.02873042,10.15141487,0.01704423,-0.04154531,0.01171791
1704704261746249,0.01436521,0.02394202,10.16578007,0.00852212,-0.04580637,0.01171791
1704704261748277,0.02873042,0.01915361,10.15141487,-0.00213053,-0.04367584,0.00639159
1704704261750306,-0.02873042,0.04788403,10.16578007,0.00532632,-0.05539375,0.00745685
1704704261752263,0.04788403,0.02394202,10.16578007,0.00000000,-0.04474111,0.00958738
1704704261754268,-0.01915361,0.03830723,10.16099167,-0.00745685,-0.05326322,0.00426106
1704704261756298,0.00957681,0.05267244,10.17056847,-0.01065264,-0.04687164,-0.00426106
1704704261758323,0.02394202,0.01915361,10.15141487,-0.00639159,-0.04367584,-0.00426106
1704704261760348,-0.03351882,0.06224924,10.16099167,0.00000000,-0.03941479,-0.00639159
1704704261762260,0.03351882,0.03830723,10.16578007,-0.00319579,-0.04261058,-0.00319579
1704704261764338,-0.02394202,0.02873042,10.14662647,0.00106526,-0.04048005,-0.00319579
1704704261766331,0.02873042,0.04788403,10.15620327,0.01278317,-0.03621899,0.00319579
1704704261768294,0.01436521,0.01915361,10.14662647,0.01171791,-0.03515373,0.00319579
1704704261770297,-0.03830723,0.06224924,10.14662647,-0.00106526,-0.02982740,0.00639159
1704704261772226,0.01915361,0.05267244,10.15141487,-0.00639159,-0.03302320,0.00852212
1704704261774317,-0.02873042,0.01915361,10.12268448,0.00639159,-0.03089267,0.00639159
1704704261776308,-0.00957681,0.08140286,10.13226128,0.00532632,-0.02876214,0.00213053
1704704261778271,0.00000000,0.02873042,10.12268448,-0.00319579,-0.01597897,0.00426106
1704704261780291,-0.03830723,0.05746084,10.10831928,-0.01917476,-0.02343582,0.00532632
1704704261782294,0.00957681,0.07661445,10.12268448,-0.01491370,-0.02982740,0.00532632
1704704261784276,-0.03351882,0.02394202,10.09874249,-0.01917476,-0.01917476,-0.00106526
1704704261786271,-0.01436521,0.08140286,10.09874249,-0.02663161,-0.00852212,-0.00319579
1704704261788279,-0.00957681,0.04788403,10.09874249,-0.02024002,-0.00745685,-0.00106526
1704704261790281,-0.03830723,0.05267244,10.08437729,-0.01810949,-0.01491370,-0.00106526
1704704261792292,-0.00478840,0.08140286,10.09395409,-0.02450108,-0.00532632,-0.01065264
1704704261794290,-0.03351882,0.04309563,10.08437729,-0.03408846,0.00213053,-0.00852212
1704704261796276,-0.01436521,0.07661445,10.06522369,-0.03515373,0.00639159,-0.00639159
1704704261798298,-0.01436521,0.05746084,10.07001209,-0.03408846,-0.00319579,-0.00319579
1704704261800424,-0.03830723,0.05267244,10.05085850,-0.02663161,0.00852212,-0.00106526
1704704261802291,-0.01436521,0.07661445,10.04128170,-0.02556635,0.00852212,0.00639159
1704704261804290,-0.03830723,0.04788403,10.03649330,-0.03089267,0.01278317,0.00426106
1704704261806307,-0.02873042,0.07182605,10.01255131,-0.01917476,0.00745685,0.00106526
1704704261808570,-0.02394202,0.05746084,10.00776291,-0.02130529,0.01278317,-0.00213053
1704704261810302,-0.03351882,0.06703765,9.98860931,-0.02876214,0.00852212,-0.00213053
1704704261812253,-0.02873042,0.06703765,9.98382092,-0.02343582,0.01065264,0.00106526
1704704261814325,-0.03830723,0.05267244,9.97903252,-0.01491370,0.01384844,-0.00532632
1704704261816331,-0.03351882,0.07182605,9.95509052,-0.02130529,0.00213053,-0.00532632
1704704261818306,-0.02394202,0.06703765,9.94072533,-0.02024002,-0.00213053,-0.00958738
1704704261820297,-0.03351882,0.06224924,9.93593693,-0.00958738,0.00852212,-0.00426106
1704704261822257,-0.02394202,0.07661445,9.91678333,-0.00745685,0.01278317,-0.00958738
1704704261824309,-0.02873042,0.06224924,9.90241814,-0.00106526,-0.00426106,-0.00852212
1704704261826294,-0.02873042,0.08140286,9.89762974,0.01491370,-0.00426106,-0.00958738
1704704261828291,-0.02394202,0.07182605,9.87847614,0.02024002,0.00426106,-0.01278317
1704704261830269,-0.01915361,0.07661445,9.87368774,0.00852212,0.00000000,-0.00958738
1704704261832279,-0.02394202,0.09097967,9.86889935,0.01384844,-0.01065264,-0.00426106
1704704261834411,-0.01436521,0.07661445,9.85453415,0.02663161,-0.01704423,-0.00639159
1704704261836313,-0.01436521,0.10055647,9.84974575,0.03941479,-0.01810949,-0.00852212
1704704261838278,-0.01436521,0.09097967,9.84016895,0.02982740,-0.01917476,-0.00532632
1704704261840299,0.00000000,0.09097967,9.83059216,0.02237055,-0.03195793,-0.00745685
1704704261842278,-0.01436521,0.10534488,9.83538055,0.02343582,-0.04048005,-0.00639159
1704704261844284,-0.00478840,0.08619126,9.82580376,0.02769688,-0.02876214,-0.00852212
1704704261847163,0.00478840,0.10534488,9.82101536,0.02450108,-0.02343582,-0.01065264
1704704261848275,0.00000000,0.09097967,9.81622696,0.02769688,-0.04154531,-0.01171791
1704704261850337,0.01436521,0.09576806,9.81143856,0.03408846,-0.03941479,-0.00852212
1704704261852339,-0.00478840,0.10534488,9.82101536,0.03834952,-0.04048005,-0.00532632
1704704261854274,0.00000000,0.09576806,9.81622696,0.02769688,-0.04474111,-0.01384844
1704704261856301,0.01436521,0.10055647,9.80186176,0.03089267,-0.04367584,-0.00532632
1704704261858315,-0.00478840,0.10534488,9.81143856,0.03515373,-0.03515373,-0.00213053
1704704261860290,0.01915361,0.09097967,9.80186176,0.04367584,-0.02663161,-0.00426106
1704704261862268,0.01436521,0.10055647,9.80186176,0.02769688,-0.02556635,-0.00426106
1704704261864325,0.00478840,0.09097967,9.80665016,0.02982740,-0.02556635,-0.00426106
1704704261866295,0.02394202,0.08619126,9.78749657,0.03408846,-0.02130529,-0.00426106
1704704261868312,0.00000000,0.09576806,9.79707336,0.04261058,-0.00213053,-0.00745685
1704704261870308,0.01436521,0.08619126,9.78749657,0.03195793,-0.00532632,-0.00958738
1704704261872241,0.01915361,0.08140286,9.78270817,0.02769688,-0.00958738,-0.01704423
1704704261874331,-0.00478840,0.09097967,9.79707336,0.02663161,-0.01278317,-0.01597897
1704704261876301,0.00957681,0.07182605,9.77791977,0.03302320,0.00426106,-0.01171791
1704704261878286,-0.00478840,0.07661445,9.78270817,0.03515373,0.00426106,-0.01065264
1704704261880273,-0.01436521,0.08140286,9.78270817,0.03089267,0.00319579,-0.00958738
1704704261882276,0.00000000,0.06224924,9.76834297,0.03728426,0.00426106,-0.00745685
1704704261884274,-0.02394202,0.08140286,9.78270817,0.03834952,0.00319579,-0.00745685
1704704261886304,-0.01436521,0.07182605,9.77313137,0.05006743,0.00852212,-0.00532632
1704704261888318,-0.01915361,0.06703765,9.76834297,0.05858954,0.01384844,-0.00532632
1704704261890290,-0.03830723,0.09576806,9.77313137,0.05752428,0.01810949,-0.00426106
1704704261892251,-0.01436521,0.06703765,9.76355457,0.05432849,0.02130529,-0.00319579
1704704261894295,-0.03351882,0.08619126,9.77313137,0.04367584,0.02343582,-0.00213053
1704704261896498,-0.03830723,0.09097967,9.77313137,0.03515373,0.02769688,-0.00213053
1704704261898298,-0.02873042,0.08140286,9.76834297,0.04048005,0.03089267,0.00319579
1704704261900366,-0.04309563,0.10055647,9.77313137,0.04474111,0.03195793,0.00213053
1704704261902264,-0.03351882,0.08619126,9.77313137,0.05006743,0.03302320,0.00000000
1704704261904264,-0.02873042,0.08140286,9.77313137,0.04687164,0.03089267,-0.00319579
1704704261906299,-0.05267244,0.11013328,9.78270817,0.04580637,0.03089267,-0.00745685
1704704261908311,-0.02873042,0.07661445,9.78270817,0.04154531,0.01917476,0.00000000
1704704261910295,-0.04309563,0.09576806,9.77791977,0.02769688,0.01704423,-0.00852212
1704704261912278,-0.04788403,0.09576806,9.79228497,0.02450108,0.01917476,-0.00745685
1704704261914336,-0.01915361,0.07182605,9.79228497,0.03195793,0.01917476,-0.00426106
1704704261916297,-0.04788403,0.10534488,9.79707336,0.03302320,0.01384844,-0.00532632
1704704261918294,-0.02394202,0.08140286,9.81143856,0.03408846,0.01597897,-0.00958738
1704704261920302,-0.00957681,0.08140286,9.80186176,0.03408846,0.00958738,-0.00958738
1704704261922286,-0.03351882,0.09576806,9.81143856,0.02663161,0.00745685,-0.01384844
1704704261924305,0.00957681,0.06703765,9.82101536,0.02237055,0.00532632,-0.01384844
1704704261926296,-0.01436521,0.08619126,9.81143856,0.03408846,0.00106526,-0.01065264
1704704261928256,-0.00957681,0.08140286,9.83059216,0.02769688,0.00426106,-0.00106526
1704704261930281,0.02394202,0.06703765,9.82580376,0.03621899,0.00852212,-0.00426106
1704704261932280,-0.01915361,0.09097967,9.83059216,0.02982740,0.00639159,0.00106526
1704704261934190,0.01915361,0.06224924,9.84495735,0.03302320,-0.00213053,0.00319579
1704704261936301,0.00957681,0.06703765,9.83059216,0.04154531,-0.00213053,-0.00106526
1704704261938292,-0.01436521,0.08140286,9.84974575,0.05326322,0.00106526,-0.00213053
1704704261940464,0.03351882,0.05746084,9.84495735,0.02769688,0.00532632,-0.00106526
1704704261942257,-0.02394202,0.07661445,9.85453415,0.03515373,0.00532632,0.00106526
1704704261944304,0.00000000,0.06703765,9.86411095,0.03621899,0.00958738,0.00106526
1704704261946286,0.00478840,0.04309563,9.84974575,0.04367584,0.00426106,0.00639159
1704704261948294,-0.03351882,0.07661445,9.86411095,0.02769688,-0.00106526,0.00639159
1704704261950313,0.00957681,0.04788403,9.86889935,0.03515373,-0.00106526,0.00106526
1704704261952299,-0.03351882,0.04309563,9.85453415,0.04154531,0.01171791,-0.00426106
1704704261954309,-0.02873042,0.07661445,9.88326454,0.03728426,0.00319579,-0.00106526
1704704261956305,-0.00957681,0.03351882,9.87368774,0.03302320,0.00106526,-0.00426106
1704704261958420,-0.05267244,0.06703765,9.88326454,0.03515373,-0.00106526,-0.00426106
1704704261960273,-0.00957681,0.06703765,9.89284134,0.04154531,0.00639159,0.00000000
1704704261962275,-0.04309563,0.02873042,9.87847614,0.02450108,0.00426106,-0.00106526
1704704261964337,-0.03351882,0.08619126,9.89762974,0.02237055,-0.00106526,0.00106526
1704704261966346,-0.01436521,0.04788403,9.88805294,0.04900216,-0.00958738,0.01065264
1704704261968286,-0.05746084,0.05746084,9.88805294,0.05965481,-0.00532632,0.00639159
1704704261970308,-0.01436521,0.09576806,9.90241814,0.03302320,-0.00532632,-0.00106526
1704704261972265,-0.03830723,0.02873042,9.88805294,0.03195793,-0.00106526,0.00532632
1704704261974309,-0.04309563,0.08619126,9.89762974,0.02982740,-0.00852212,0.00532632
1704704261976347,-0.01915361,0.06224924,9.90241814,0.03195793,-0.00319579,0.00639159
1704704261978225,-0.05746084,0.04309563,9.89284134,0.02343582,-0.00532632,0.00958738
1704704261980295,-0.01915361,0.10055647,9.91199493,0.01917476,0.00000000,0.00000000
1704704261982281,-0.04788403,0.03830723,9.90241814,0.03195793,-0.00319579,0.00426106
1704704261984302,-0.04309563,0.07661445,9.90241814,0.03728426,-0.00213053,0.00000000
1704704261986276,-0.02394202,0.08140286,9.91678333,0.02663161,0.00000000,0.00106526
1704704261988294,-0.06224924,0.04309563,9.90720654,0.03515373,0.00319579,0.00106526
1704704261990301,-0.02394202,0.10534488,9.92157173,0.05645901,0.00852212,0.01278317
1704704261992269,-0.04788403,0.05267244,9.92636013,0.05006743,0.01278317,-0.00106526
1704704261994271,-0.04309563,0.07661445,9.92157173,0.04793690,0.01810949,0.00319579
1704704261996301,-0.02873042,0.10055647,9.93593693,0.05432849,0.01704423,0.00532632
1704704261998296,-0.05746084,0.06224924,9.94072533,0.05858954,0.02556635,0.00852212
1704704262000302,-0.02873042,0.10534488,9.94072533,0.04261058,0.03089267,-0.00532632
1704704262002293,-0.04788403,0.07661445,9.95030212,0.03089267,0.02982740,-0.00213053
1704704262004277,-0.04788403,0.07661445,9.95030212,0.04474111,0.02663161,-0.00213053
1704704262006303,-0.03830723,0.09097967,9.95509052,0.03941479,0.03302320,-0.00639159
1704704262008357,-0.05746084,0.06224924,9.96466732,0.02024002,0.03834952,0.00213053
1704704262010364,-0.04309563,0.08140286,9.95509052,0.02024002,0.03515373,0.00106526
1704704262012264,-0.05746084,0.06224924,9.95987892,0.01384844,0.04580637,-0.00532632
1704704262014334,-0.05267244,0.06224924,9.96466732,0.00958738,0.04580637,-0.00426106
1704704262016393,-0.04788403,0.06703765,9.95509052,0.00426106,0.04367584,-0.00213053
1704704262018309,-0.06224924,0.04788403,9.96466732,0.00426106,0.03515373,-0.00106526
1704704262020311,-0.05267244,0.06224924,9.95987892,0.00106526,0.03089267,0.00852212
1704704262022264,-0.05746084,0.04788403,9.95509052,0.00106526,0.03089267,0.00426106
1704704262024339,-0.05267244,0.05267244,9.95987892,-0.00319579,0.03728426,0.00213053
1704704262026306,-0.04788403,0.05267244,9.94551373,-0.01278317,0.03515373,-0.00639159
1704704262028422,-0.04788403,0.04309563,9.94551373,-0.00639159,0.02343582,-0.00319579
1704704262030272,-0.04309563,0.05746084,9.94551373,-0.01278317,0.03195793,-0.00213053
1704704262032338,-0.04788403,0.03351882,9.93114853,-0.01384844,0.03089267,0.00000000
1704704262034410,-0.03830723,0.05267244,9.93593693,-0.00319579,0.02343582,-0.00426106
1704704262036319,-0.04309563,0.05746084,9.92636013,0.00319579,0.02982740,0.00745685
1704704262038280,-0.03830723,0.03830723,9.92636013,-0.00319579,0.01810949,0.00426106
1704704262040326,-0.03351882,0.06703765,9.92636013,-0.00426106,0.01065264,0.00639159
1704704262042307,-0.04309563,0.04309563,9.90720654,0.00532632,0.01810949,-0.00852212
1704704262044298,-0.01436521,0.05746084,9.90720654,-0.00532632,0.02130529,0.00532632
1704704262046285,-0.03830723,0.06703765,9.90241814,0.00106526,0.00426106,0.00213053
1704704262048302,-0.02873042,0.03830723,9.89284134,0.00745685,0.00319579,0.00958738
1704704262050326,-0.00957681,0.07661445,9.88805294,0.01171791,0.01171791,0.01491370
1704704262052263,-0.04309563,0.05267244,9.87847614,0.01065264,0.00958738,0.02450108
1704704262054295,0.00000000,0.06224924,9.86889935,-0.00213053,-0.00106526,0.01384844
1704704262056363,-0.02394202,0.08140286,9.87368774,0.00745685,0.00106526,0.01384844
1704704262058383,-0.02873042,0.04788403,9.85932255,0.02130529,-0.00213053,0.01384844
1704704262060306,0.00478840,0.08140286,9.84974575,0.02343582,-0.00745685,0.01491370
1704704262062265,-0.04309563,0.07661445,9.85453415,0.01704423,-0.01491370,0.01810949
1704704262064344,0.00000000,0.06703765,9.83059216,0.01597897,-0.00745685,0.01810949
1704704262066309,-0.01436521,0.09097967,9.83059216,0.02663161,-0.00958738,0.02237055
1704704262068302,-0.02873042,0.07661445,9.82580376,0.02024002,-0.01278317,0.02130529
1704704262070298,0.00957681,0.09097967,9.81143856,0.02556635,-0.01704423,0.02343582
1704704262072246,-0.04309563,0.09576806,9.82101536,0.04048005,-0.00852212,0.02130529
1704704262074316,0.00000000,0.09097967,9.80186176,0.04048005,-0.00319579,0.02130529
1704704262076319,-0.00478840,0.11013328,9.79228497,0.04154531,-0.00319579,0.02130529
1704704262078499,-0.04309563,0.10534488,9.80186176,0.04154531,-0.00958738,0.02556635
1704704262080293,0.00957681,0.10534488,9.78270817,0.05645901,-0.00319579,0.02876214
1704704262082299,-0.03830723,0.11971009,9.79228497,0.05326322,0.00426106,0.02237055
1704704262084300,-0.01915361,0.11492168,9.78270817,0.04474111,0.01171791,0.01917476
1704704262086301,-0.00478840,0.11971009,9.76834297,0.04367584,0.00852212,0.02024002
1704704262088269,-0.05267244,0.12928689,9.78749657,0.05539375,0.01065264,0.01065264
1704704262090340,-0.00957681,0.11971009,9.77313137,0.05432849,0.01065264,0.00000000
1704704262092277,-0.04309563,0.12449849,9.77791977,0.04154531,0.01810949,0.00639159
1704704262094280,-0.05267244,0.13407530,9.78270817,0.04580637,0.02130529,0.00745685
1704704262096322,-0.01915361,0.10534488,9.76355457,0.05006743,0.02024002,-0.00426106
1704704262098258,-0.06703765,0.12449849,9.78270817,0.04793690,0.03302320,-0.00426106
1704704262100312,-0.03830723,0.11971009,9.77791977,0.04474111,0.03302320,0.00426106
1704704262102268,-0.04309563,0.09576806,9.77313137,0.05219796,0.02663161,-0.00319579
1704704262104260,-0.06703765,0.12928689,9.78270817,0.05006743,0.03941479,-0.00319579
1704704262106283,-0.03351882,0.09576806,9.76834297,0.04687164,0.04474111,-0.00639159
1704704262108472,-0.06224924,0.10055647,9.76834297,0.04261058,0.04261058,-0.00639159
1704704262110288,-0.05746084,0.11492168,9.77791977,0.04580637,0.03408846,-0.00319579
1704704262112277,-0.04788403,0.06703765,9.76834297,0.04793690,0.04154531,0.00106526
1704704262114335,-0.07661445,0.10534488,9.77791977,0.03941479,0.03941479,0.00106526
1704704262116228,-0.05746084,0.08619126,9.77313137,0.04580637,0.03941479,0.00000000
1704704262118317,-0.06224924,0.06224924,9.77313137,0.05006743,0.04261058,-0.00426106
1704704262120291,-0.07182605,0.10055647,9.77791977,0.04900216,0.04687164,-0.00213053
1704704262122219,-0.05746084,0.06224924,9.77313137,0.04900216,0.04048005,0.00745685
1704704262124306,-0.07182605,0.07661445,9.76834297,0.04687164,0.04367584,0.00532632
1704704262126313,-0.06224924,0.08619126,9.76834297,0.04900216,0.03728426,0.00213053
1704704262128326,-0.05746084,0.04309563,9.75876617,0.04154531,0.03834952,0.00426106
1704704262130276,-0.06703765,0.08619126,9.75397778,0.04048005,0.03621899,0.00532632
1704704262132294,-0.06224924,0.06224924,9.75397778,0.04261058,0.02663161,0.00426106
1704704262134313,-0.06224924,0.05267244,9.73961258,0.05645901,0.03302320,0.00213053
1704704262136333,-0.06224924,0.08140286,9.73003578,0.05006743,0.03941479,0.00426106
1704704262138281,-0.04788403,0.04309563,9.73003578,0.04793690,0.03515373,0.00000000
1704704262140339,-0.05267244,0.06703765,9.70609379,0.05006743,0.02237055,0.00213053
1704704262142258,-0.05267244,0.07182605,9.71567059,0.05006743,0.02663161,-0.00745685
1704704262144325,-0.04309563,0.04788403,9.70130539,0.04367584,0.02876214,0.00106526
1704704262146301,-0.04788403,0.08619126,9.68694019,0.04048005,0.03089267,-0.00639159
1704704262148301,-0.03351882,0.06703765,9.70130539,0.04793690,0.02237055,0.00532632
1704704262150333,-0.03351882,0.06224924,9.67736340,0.05645901,0.02343582,0.00213053
1704704262152275,-0.03830723,0.08619126,9.68215179,0.05432849,0.02130529,0.01278317
1704704262154385,-0.01915361,0.05746084,9.68694019,0.03834952,0.02876214,0.00319579
1704704262156303,-0.03351882,0.07182605,9.66299820,0.04154531,0.03515373,0.00745685
1704704262158328,-0.02394202,0.07661445,9.68215179,0.04261058,0.03408846,0.01384844
1704704262160285,-0.01915361,0.05746084,9.67257500,0.02982740,0.03195793,0.00958738
1704704262162356,-0.03830723,0.07661445,9.66778660,0.02024002,0.04154531,0.00319579
1704704262164261,-0.01915361,0.06703765,9.68694019,0.02343582,0.05219796,0.00319579
1704704262166452,-0.03351882,0.04788403,9.66299820,0.02450108,0.04474111,0.00319579
1704704262168287,-0.02873042,0.06703765,9.67736340,0.01704423,0.03408846,-0.00532632
1704704262170316,-0.01436521,0.04788403,9.68215179,0.01810949,0.03515373,-0.00106526
1704704262172264,-0.04309563,0.04309563,9.67257500,0.01704423,0.03728426,-0.00213053
1704704262174288,-0.01436521,0.06703765,9.69172859,0.01171791,0.03728426,-0.00532632
1704704262176309,-0.01915361,0.03351882,9.67736340,0.00958738,0.03195793,-0.00639159
1704704262178332,-0.02873042,0.05267244,9.68215179,-0.00639159,0.02237055,-0.00426106
1704704262180337,0.00000000,0.05746084,9.69172859,0.00000000,0.02237055,-0.00213053
1704704262182285,-0.02873042,0.03830723,9.68215179,0.00319579,0.01491370,0.00106526
1704704262184429,0.00000000,0.06703765,9.69172859,-0.00958738,0.00639159,-0.00426106
1704704262186305,-0.00478840,0.05267244,9.69172859,-0.01491370,0.01065264,-0.00532632
1704704262188298,-0.01915361,0.05267244,9.68215179,0.00000000,0.01065264,0.00639159
1704704262190332,0.01915361,0.06703765,9.68694019,-0.00852212,-0.00213053,0.00213053
1704704262192260,-0.01915361,0.04788403,9.69172859,-0.00745685,-0.00639159,-0.00106526
1704704262194429,-0.01915361,0.05267244,9.69172859,-0.00958738,-0.00106526,0.00532632
1704704262196401,0.00478840,0.05267244,9.69651699,-0.00106526,-0.00319579,0.00319579
1704704262198293,-0.00957681,0.05746084,9.69651699,0.00213053,-0.00639159,-0.00319579
1704704262200355,0.01915361,0.06703765,9.68694019,0.01278317,-0.00213053,-0.00426106
1704704262202409,0.00957681,0.06224924,9.69172859,0.01065264,-0.00958738,0.00319579
1704704262204197,0.00000000,0.07182605,9.70130539,0.01278317,-0.01065264,0.00532632
1704704262206312,0.00478840,0.06703765,9.69651699,0.01171791,-0.00532632,0.01278317
1704704262208337,-0.00957681,0.06224924,9.70130539,0.01704423,0.00532632,0.01491370
1704704262210493,0.00000000,0.07661445,9.70130539,0.01491370,-0.01065264,0.01065264
1704704262212267,-0.00957681,0.06224924,9.70609379,0.00639159,0.00106526,0.00213053
1704704262214337,-0.01436521,0.06703765,9.72045898,0.00213053,0.00000000,0.00213053
1704704262216336,0.00478840,0.07182605,9.71088219,0.00532632,-0.00426106,0.01065264
1704704262218311,-0.00957681,0.05746084,9.71567059,0.01597897,-0.01384844,0.01065264
1704704262220315,-0.00957681,0.08619126,9.72045898,0.01704423,0.00000000,0.01065264
1704704262222277,0.00000000,0.06703765,9.71088219,0.00852212,-0.00213053,0.00106526
1704704262224319,-0.01436521,0.07182605,9.73003578,0.01065264,-0.00639159,0.01278317
1704704262226302,-0.00957681,0.09576806,9.73003578,0.01810949,-0.00319579,0.00532632
1704704262228316,-0.01915361,0.05746084,9.72524738,0.01065264,-0.00958738,0.00000000
1704704262230285,-0.02394202,0.10055647,9.73961258,0.00106526,-0.00639159,-0.00426106
1704704262232302,-0.02394202,0.07661445,9.73003578,-0.00319579,0.00213053,0.00213053
1704704262234284,-0.02873042,0.05746084,9.73482418,0.00000000,-0.01065264,0.00106526
1704704262236306,-0.02873042,0.11492168,9.73961258,0.00213053,-0.01704423,0.01278317
1704704262238298,-0.03351882,0.05267244,9.73003578,0.00000000,-0.00639159,0.00426106
1704704262240325,-0.02394202,0.09097967,9.73482418,-0.00852212,0.00000000,0.01384844
1704704262242273,-0.03830723,0.09576806,9.73482418,-0.01171791,-0.00852212,0.00852212
1704704262244293,-0.02394202,0.07661445,9.73482418,-0.01917476,-0.01065264,0.00958738
1704704262246303,-0.02873042,0.11013328,9.73961258,-0.01171791,-0.01597897,0.00426106
1704704262248208,-0.04788403,0.05746084,9.73003578,0.00000000,-0.00852212,0.00532632
1704704262250328,-0.01915361,0.10055647,9.72524738,-0.00106526,-0.00106526,0.00426106
1704704262252293,-0.03830723,0.09576806,9.73003578,-0.00532632,0.00000000,0.00639159
1704704262254430,-0.04788403,0.03351882,9.72045898,-0.00639159,-0.00426106,0.00958738
1704704262256296,-0.03830723,0.08619126,9.72524738,0.00745685,-0.00426106,0.00213053
1704704262258331,-0.05746084,0.06703765,9.72045898,0.01278317,-0.00639159,0.00319579
1704704262260319,-0.02873042,0.04788403,9.71088219,0.02556635,-0.00426106,0.00639159
1704704262262292,-0.03830723,0.08140286,9.71088219,0.02130529,-0.00213053,0.00000000
1704704262264336,-0.05746084,0.05746084,9.71567059,0.01917476,-0.00426106,0.00319579
1704704262266326,-0.01915361,0.06703765,9.70609379,0.02237055,-0.00532632,0.01278317
1704704262268346,-0.06703765,0.07661445,9.71567059,0.01278317,-0.00532632,0.01384844
1704704262270300,-0.03830723,0.06224924,9.71567059,0.01810949,-0.00213053,0.00745685
1704704262272275,-0.02873042,0.07182605,9.70130539,0.01810949,-0.00532632,0.00745685
1704704262274395,-0.06224924,0.06703765,9.72045898,0.02024002,-0.00532632,0.01065264
1704704262276334,-0.01915361,0.06224924,9.71088219,0.02982740,-0.00639159,0.00426106
1704704262278309,-0.07182605,0.07182605,9.71567059,0.03195793,0.00106526,-0.00213053
1704704262280379,-0.01915361,0.06703765,9.71567059,0.03408846,-0.00106526,0.00426106
1704704262282319,-0.05267244,0.06703765,9.70130539,0.02769688,0.00213053,0.01065264
1704704262284308,-0.05267244,0.07661445,9.72045898,0.04474111,0.00213053,0.00852212
1704704262286288,-0.02873042,0.05746084,9.71088219,0.03728426,0.01171791,0.00745685
1704704262288305,-0.07661445,0.07182605,9.71567059,0.04474111,0.00852212,0.00852212
1704704262290349,-0.03351882,0.07182605,9.73003578,0.04687164,0.01384844,0.01065264
1704704262292257,-0.06224924,0.04309563,9.72045898,0.04474111,0.02024002,0.00532632
1704704262294323,-0.07182605,0.07661445,9.73482418,0.03408846,0.01917476,0.00319579
1704704262296317,-0.03351882,0.05267244,9.73482418,0.03089267,0.02450108,0.00213053
1704704262298508,-0.08619126,0.04309563,9.73003578,0.03941479,0.02876214,0.00319579
1704704262300368,-0.03830723,0.06703765,9.74440098,0.03408846,0.03089267,-0.00532632
1704704262302304,-0.06224924,0.03830723,9.73961258,0.03089267,0.02769688,-0.00319579
1704704262304267,-0.08619126,0.06703765,9.74440098,0.02876214,0.02876214,0.00106526
1704704262306299,-0.04788403,0.06703765,9.75876617,0.03302320,0.02876214,0.00213053
1704704262308373,-0.09097967,0.02873042,9.74918938,0.03515373,0.03089267,-0.00319579
1704704262310333,-0.06224924,0.08140286,9.75397778,0.03515373,0.03621899,0.00319579
1704704262312243,-0.06703765,0.03830723,9.75876617,0.03408846,0.03834952,0.00426106
1704704262314327,-0.08140286,0.04309563,9.75397778,0.02982740,0.03728426,-0.00213053
1704704262316356,-0.05267244,0.07182605,9.75876617,0.02982740,0.03728426,0.00532632
1704704262318297,-0.08140286,0.02394202,9.75876617,0.02556635,0.03621899,0.01065264
1704704262320312,-0.05746084,0.06224924,9.74918938,0.01065264,0.04048005,0.00532632
1704704262322267,-0.05746084,0.04788403,9.76355457,0.01278317,0.03515373,0.00319579
1704704262324336,-0.06703765,0.03830723,9.75397778,0.00852212,0.03621899,0.01065264
1704704262326312,-0.04309563,0.05746084,9.74918938,0.00745685,0.02769688,0.01171791
1704704262328344,-0.05746084,0.03351882,9.75876617,-0.00639159,0.03302320,0.01491370
1704704262330334,-0.03830723,0.05267244,9.73961258,-0.00958738,0.03515373,0.01491370
1704704262332293,-0.03351882,0.04309563,9.73961258,-0.01597897,0.03408846,0.00745685
1704704262334300,-0.04309563,0.03351882,9.73961258,-0.02237055,0.02343582,0.00532632
1704704262336355,-0.02873042,0.04788403,9.72045898,-0.01810949,0.01384844,0.01278317
1704704262338325,-0.03351882,0.02873042,9.72524738,-0.01810949,0.02556635,0.00852212
1704704262340367,-0.02394202,0.04309563,9.71567059,-0.02024002,0.02450108,0.00852212
1704704262342308,-0.01436521,0.03830723,9.69651699,-0.02237055,0.02024002,0.01171791
1704704262344299,-0.02394202,0.02873042,9.69651699,-0.02343582,0.00639159,0.01065264
1704704262346296,-0.01915361,0.04309563,9.68694019,-0.02237055,0.00852212,0.00532632
1704704262348345,-0.01436521,0.01915361,9.67736340,-0.03408846,0.00213053,0.00745685
1704704262350315,-0.00957681,0.03830723,9.67257500,-0.02982740,0.00106526,0.00532632
1704704262352294,-0.00957681,0.02873042,9.65820980,-0.03728426,-0.00639159,0.00319579
1704704262354299,-0.00478840,0.02394202,9.65820980,-0.02450108,-0.01278317,0.00213053
1704704262356309,-0.00478840,0.04309563,9.65342140,-0.03408846,-0.01065264,0.00745685
1704704262358319,-0.00478840,0.01436521,9.64863300,-0.03515373,-0.01171791,0.00319579
1704704262360328,0.00000000,0.03351882,9.63905621,-0.03834952,-0.01597897,0.00639159
1704704262362253,-0.00957681,0.03351882,9.63426781,-0.02130529,-0.02024002,0.00000000
1704704262364349,0.00478840,0.01436521,9.62469101,-0.02556635,-0.01491370,0.00000000
1704704262366346,-0.00957681,0.03830723,9.61990261,-0.02982740,-0.01384844,0.00639159
1704704262368346,-0.01436521,0.02394202,9.61511421,-0.02769688,-0.01917476,0.00532632
1704704262370269,-0.00478840,0.02873042,9.59596062,-0.01384844,-0.01597897,0.00852212
1704704262372278,-0.02394202,0.03830723,9.60074902,-0.01065264,-0.01384844,0.01171791
1704704262374272,-0.01436521,0.02394202,9.58638382,-0.02343582,-0.01597897,0.01065264
1704704262376297,-0.01915361,0.03830723,9.57201862,-0.01597897,-0.01917476,0.01491370
1704704262378295,-0.03351882,0.03830723,9.57680702,-0.00639159,-0.01065264,0.01810949
1704704262380308,-0.01915361,0.02873042,9.55286503,0.00000000,-0.00639159,0.01704423
1704704262382307,-0.03351882,0.04788403,9.54807663,-0.02130529,-0.00852212,0.01065264
1704704262384330,-0.03351882,0.03830723,9.54807663,-0.02024002,-0.01065264,0.00319579
1704704262386302,-0.02394202,0.03351882,9.52413464,-0.01171791,-0.01384844,-0.00319579
1704704262388278,-0.03830723,0.04788403,9.52892303,-0.00319579,-0.01065264,0.00106526
1704704262390310,-0.03351882,0.04309563,9.51934624,-0.01704423,-0.01171791,0.00958738
1704704262392326,-0.03351882,0.03830723,9.50498104,-0.01171791,-0.01597897,0.01065264
1704704262394364,-0.03830723,0.05746084,9.50498104,0.00426106,-0.01491370,0.01065264
1704704262396309,-0.02873042,0.03830723,9.49061584,-0.00106526,-0.01278317,0.01491370
1704704262398465,-0.03351882,0.04788403,9.49061584,-0.01491370,-0.01917476,0.01278317
1704704262400329,-0.03830723,0.05746084,9.48582745,-0.00532632,-0.02024002,0.02024002
1704704262402260,-0.02873042,0.03830723,9.47146225,0.01384844,-0.00319579,0.01597897
1704704262404293,-0.03351882,0.06224924,9.47146225,-0.00106526,0.00213053,0.01278317
1704704262406334,-0.03351882,0.06224924,9.46667385,-0.01171791,-0.01384844,0.01384844
1704704262408328,-0.02873042,0.04309563,9.46667385,-0.01065264,-0.01597897,0.01810949
1704704262410338,-0.03351882,0.07182605,9.46188545,0.00745685,-0.00852212,0.00958738
1704704262412277,-0.02873042,0.05746084,9.46188545,-0.00745685,-0.00426106,-0.00106526
1704704262414343,-0.02394202,0.05746084,9.45709705,-0.00958738,-0.01278317,0.00213053
1704704262416326,-0.03830723,0.07182605,9.45709705,-0.00319579,-0.01278317,0.00213053
1704704262418225,-0.02873042,0.04788403,9.46667385,-0.00213053,-0.00639159,-0.00319579
1704704262420313,-0.02873042,0.06224924,9.45709705,-0.01597897,-0.00213053,-0.00106526
1704704262422291,-0.03830723,0.07182605,9.46667385,-0.01065264,-0.00319579,0.00745685
1704704262424332,-0.02873042,0.04788403,9.46667385,0.00213053,0.00106526,0.00426106
1704704262426290,-0.03830723,0.06703765,9.45709705,0.00426106,0.01278317,0.00106526
1704704262428303,-0.03830723,0.06224924,9.48103905,-0.00639159,0.02130529,-0.00319579
1704704262430315,-0.03830723,0.05267244,9.47146225,0.00000000,0.01917476,0.01171791
1704704262432269,-0.04788403,0.06703765,9.47625065,0.00319579,0.02343582,0.00958738
1704704262434286,-0.04309563,0.05267244,9.50019264,-0.00958738,0.04048005,0.01491370
1704704262436331,-0.04788403,0.05267244,9.48103905,-0.01384844,0.06178534,0.01597897
1704704262438281,-0.05746084,0.06703765,9.50976944,-0.01065264,0.06391586,0.01917476
1704704262440337,-0.05267244,0.04788403,9.52413464,0.00745685,0.06711166,0.01491370
1704704262442267,-0.06703765,0.05746084,9.51934624,0.00213053,0.08628642,0.00745685
1704704262444291,-0.05746084,0.06703765,9.55286503,-0.00106526,0.09800433,0.00213053
1704704262446302,-0.06703765,0.05267244,9.55765343,0.00213053,0.10333065,0.00745685
1704704262448303,-0.07661445,0.06703765,9.57680702,-0.00745685,0.10439591,0.00745685
1704704262450307,-0.06224924,0.06703765,9.60553741,-0.01491370,0.11078750,0.01171791
1704704262452284,-0.08619126,0.04788403,9.61032581,-0.00852212,0.11824435,0.00532632
1704704262454268,-0.07182605,0.07182605,9.63905621,0.00000000,0.12357067,0.00745685
1704704262456290,-0.06703765,0.05746084,9.65820980,0.00958738,0.11824435,0.01065264
1704704262458324,-0.09097967,0.05267244,9.67257500,-0.00106526,0.11291803,0.01917476
1704704262460295,-0.06703765,0.06224924,9.70130539,0.00319579,0.11185277,0.01278317
1704704262462273,-0.08140286,0.04788403,9.72045898,0.01597897,0.10759171,0.00213053
1704704262464326,-0.07182605,0.05267244,9.73482418,0.02450108,0.10333065,0.00426106
1704704262466328,-0.06224924,0.05267244,9.75876617,0.01278317,0.08735169,0.00106526
1704704262468295,-0.07182605,0.04309563,9.77791977,0.02556635,0.08096009,-0.00745685
1704704262470301,-0.04788403,0.05267244,9.79228497,0.03834952,0.06817693,-0.00319579
1704704262472258,-0.05746084,0.04788403,9.81622696,0.02876214,0.07137272,0.00426106
