timestamp,accel_x,accel_y,accel_z,gyro_x,gyro_y,gyro_z
1691759714269187,-0.16280572,-0.12928689,9.97903252,0.02130529,-0.01278317,-0.03941479
1691759714271252,-0.04309563,-0.11013328,9.84016895,0.04154531,-0.00213053,-0.04261058
1691759714273298,0.00000000,0.09576806,9.79228497,0.04261058,0.00319579,-0.04048005
1691759714275173,-0.09097967,-0.02873042,9.99818611,0.02769688,-0.00852212,-0.04900216
1691759714277217,-0.00957681,0.04788403,9.75397778,0.02343582,-0.02450108,-0.05752428
1691759714279199,-0.10534488,0.02394202,9.93593693,0.01597897,-0.02556635,-0.05326322
1691759714281242,0.02394202,-0.06703765,9.89284134,-0.01171791,-0.02876214,-0.04687164
1691759714283230,0.12449849,0.10534488,9.81622696,-0.02130529,-0.04261058,-0.04900216
1691759714285216,0.00000000,-0.11971009,10.07480049,-0.01278317,-0.05752428,-0.03941479
1691759714287256,0.11492168,-0.08619126,10.07001209,-0.01704423,-0.06072007,-0.03941479
1691759714289198,0.11013328,0.07182605,9.99339771,-0.03621899,-0.07456851,-0.02876214
1691759714291330,-0.02394202,-0.10534488,10.03170490,-0.01917476,-0.07456851,-0.02982740
1691759714293204,-0.00957681,0.10534488,9.89762974,-0.01065264,-0.06178534,-0.03834952
1691759714295213,-0.10534488,0.12928689,10.01255131,-0.02450108,-0.04793690,-0.03941479
1691759714297215,-0.11492168,0.03351882,10.07001209,-0.04261058,-0.03621899,-0.03941479
1691759714299228,-0.06224924,0.10055647,9.77791977,-0.02450108,-0.01597897,-0.03408846
1691759714301421,-0.11971009,0.04788403,9.88326454,-0.01384844,0.01065264,-0.04048005
1691759714303213,-0.12928689,0.14844051,9.82101536,-0.00958738,0.02130529,-0.04048005
1691759714305263,-0.05267244,0.04788403,9.83059216,-0.01171791,0.02982740,-0.04261058
1691759714307298,-0.10534488,-0.09097967,9.95987892,0.00852212,0.02450108,-0.04261058
1691759714309219,-0.08140286,0.01915361,9.84974575,0.00852212,0.01491370,-0.04048005
1691759714311202,-0.22026655,0.17238252,9.91678333,0.03515373,0.00106526,-0.03408846
1691759714313252,0.08619126,0.03351882,10.00297451,0.05006743,0.00319579,-0.02450108
1691759714315356,-0.00478840,0.18674773,9.92157173,0.04367584,-0.00319579,-0.03195793
1691759714317213,0.00000000,0.17238252,10.01255131,0.03089267,-0.01491370,-0.03621899
1691759714319176,0.09576806,0.08140286,10.00776291,0.02024002,-0.00958738,-0.04048005
1691759714321233,0.12449849,0.17717093,9.89284134,0.02982740,-0.01065264,-0.03515373
1691759714323208,0.00000000,0.01436521,10.03649330,0.01384844,-0.00639159,-0.04154531
1691759714325316,0.04788403,-0.00957681,9.92636013,0.00000000,-0.00745685,-0.03515373
1691759714327203,-0.05267244,0.01436521,9.91199493,0.00000000,-0.00745685,-0.04261058
1691759714329258,-0.06224924,-0.00957681,9.99818611,0.00106526,-0.00319579,-0.03408846
1691759714331251,0.02873042,0.10534488,9.86889935,0.00213053,-0.00639159,-0.04261058
1691759714333330,-0.03830723,0.11492168,9.98860931,0.00532632,0.00000000,-0.03515373
1691759714335217,0.03830723,0.20590134,9.96466732,0.02450108,-0.00426106,-0.04261058
1691759714337213,0.01915361,0.23942018,9.86889935,0.01917476,-0.01171791,-0.04154531
1691759714339224,-0.09097967,0.12449849,10.02691650,0.02556635,-0.02556635,-0.03302320
1691759714341220,0.01915361,0.07182605,9.94551373,0.03728426,-0.03621899,-0.03302320
1691759714343350,-0.03351882,0.05267244,9.91678333,0.04367584,-0.04048005,-0.02130529
1691759714345215,0.03351882,0.09097967,9.99818611,0.02982740,-0.03515373,-0.01597897
1691759714347356,0.11971009,0.00957681,9.87847614,0.02130529,-0.02343582,-0.00958738
1691759714349222,0.08140286,0.02394202,9.86411095,0.02343582,-0.00532632,-0.02450108
1691759714351240,0.18674773,0.14365210,9.79707336,0.01917476,0.00745685,-0.01917476
1691759714353216,0.05267244,0.06224924,9.78270817,0.00745685,0.03408846,-0.01278317
1691759714355208,-0.00478840,0.08619126,9.85932255,0.01278317,0.05645901,-0.02663161
1691759714357267,0.03830723,0.10055647,9.76355457,0.02343582,0.07243798,-0.00958738
1691759714359202,-0.14844051,0.17238252,9.66299820,0.01384844,0.10652644,-0.01597897
1691759714361211,-0.12449849,0.12928689,9.67257500,0.02556635,0.12783173,-0.00958738
1691759714363219,-0.11971009,0.09097967,9.65342140,0.05006743,0.15552860,-0.02663161
1691759714365359,-0.10055647,0.26815060,9.58638382,0.05645901,0.18429075,-0.01810949
1691759714367205,-0.02873042,0.14844051,9.57201862,0.06285060,0.19281286,-0.00532632
1691759714369228,-0.15801731,0.11013328,9.55286503,0.07243798,0.19813919,-0.00106526
1691759714371204,-0.11971009,0.16280572,9.58638382,0.09480853,0.18216021,0.00639159
1691759714373275,-0.03830723,0.08619126,9.71088219,0.07776430,0.16298546,-0.00958738
1691759714375235,-0.00957681,0.13407530,9.62947941,0.08628642,0.11078750,-0.00639159
1691759714377206,0.07182605,0.05267244,9.66778660,0.06924219,0.07776430,0.00745685
1691759714379179,0.12449849,0.06224924,9.74440098,0.04154531,0.06604639,-0.00426106
1691759714381226,0.11013328,-0.00957681,9.65342140,0.01491370,0.03408846,0.00532632
1691759714383346,0.16759412,-0.00957681,9.69651699,-0.01597897,0.02769688,0.00000000
1691759714385260,0.15801731,-0.01915361,9.71088219,-0.00426106,0.02450108,0.01917476
1691759714387221,0.17238252,0.01436521,9.62469101,-0.00958738,0.04687164,0.00000000
1691759714389213,0.12928689,0.09097967,9.74440098,-0.02343582,0.06285060,0.00745685
1691759714391359,0.00000000,-0.03351882,9.76355457,-0.04154531,0.06817693,-0.00213053
1691759714393255,0.07661445,0.10534488,9.66778660,-0.03515373,0.07563377,-0.01171791
1691759714395204,0.04309563,0.09097967,9.85453415,-0.01491370,0.06391586,-0.02769688
1691759714397219,0.00000000,0.02394202,9.86889935,-0.02556635,0.06498113,-0.02343582
1691759714399227,0.14365210,0.11971009,9.81622696,-0.00958738,0.05432849,-0.01704423
1691759714401268,-0.01915361,0.01915361,9.98382092,0.01278317,0.03621899,-0.01491370
1691759714403197,0.04788403,0.22505496,9.87847614,0.03408846,0.03621899,-0.00639159
1691759714405377,0.11013328,0.30166942,9.95030212,0.03621899,0.03302320,-0.00852212
1691759714407278,0.06703765,0.11971009,9.85453415,0.04687164,0.03195793,0.00745685
1691759714409259,0.17717093,0.33039984,9.75397778,0.05965481,0.02343582,-0.00426106
1691759714411260,-0.04788403,0.18674773,10.05085850,0.05645901,0.03834952,0.00958738
1691759714413197,0.05746084,0.06224924,9.88326454,0.05432849,0.03515373,0.01597897
1691759714415281,0.18674773,0.15801731,9.77313137,0.04048005,0.03728426,0.01810949
1691759714417240,0.03351882,0.03351882,9.99339771,0.03834952,0.03515373,0.00639159
1691759714419188,0.15322891,0.14844051,9.87847614,0.03195793,0.02876214,0.01171791
1691759714421195,0.15322891,0.27772740,9.94072533,0.02450108,0.02876214,0.00852212
1691759714423256,0.01436521,0.06224924,10.00297451,0.01065264,0.01491370,-0.00319579
1691759714425206,0.14844051,0.11013328,9.81143856,0.01597897,0.00213053,-0.01278317
1691759714427332,0.04309563,0.07661445,10.00776291,0.01810949,-0.02237055,-0.02024002
1691759714429185,0.28251579,0.02394202,9.70130539,0.01065264,-0.02237055,-0.01491370
1691759714431225,0.16759412,0.11013328,9.68215179,0.01491370,-0.02663161,-0.01597897
1691759714433271,-0.00957681,0.00000000,9.87847614,0.01704423,-0.02556635,-0.00213053
1691759714435210,0.14844051,-0.00478840,9.63426781,0.01278317,-0.00745685,-0.00106526
1691759714437214,0.13407530,0.15322891,9.67736340,0.01491370,0.03089267,0.01491370
1691759714439174,0.03351882,0.01915361,9.71567059,0.02769688,0.04474111,0.01704423
1691759714441262,0.09576806,0.08140286,9.52413464,0.05006743,0.08735169,0.00532632
1691759714443206,-0.06224924,0.12449849,9.76834297,0.06072007,0.10439591,-0.00639159
1691759714445219,-0.00957681,0.04309563,9.64384460,0.07456851,0.10972223,-0.00852212
1691759714447205,0.02873042,0.11013328,9.58638382,0.06498113,0.11398330,0.00213053
1691759714449200,-0.15322891,-0.00957681,9.81622696,0.06072007,0.10120012,-0.01491370
1691759714451280,0.01915361,-0.06703765,9.60553741,0.05752428,0.08628642,0.01597897
1691759714453198,0.01915361,0.08140286,9.72524738,0.05965481,0.06604639,-0.00319579
1691759714455225,-0.01915361,-0.00957681,9.81622696,0.05858954,0.04793690,0.00426106
1691759714457174,0.17717093,-0.01915361,9.58159542,0.06178534,0.03302320,-0.00319579
1691759714459218,0.01436521,0.00957681,9.85453415,0.06391586,0.01597897,-0.00213053
1691759714461224,0.05267244,-0.02873042,9.79707336,0.05858954,0.01384844,-0.00106526
1691759714463266,0.10534488,0.07182605,9.69651699,0.04261058,0.00639159,-0.01065264
1691759714465281,-0.08140286,-0.00957681,9.94551373,0.02556635,0.00745685,-0.00852212
1691759714467370,0.15801731,-0.05267244,9.74440098,0.02982740,0.00958738,-0.00532632
1691759714469186,0.12449849,0.03830723,9.90241814,0.02876214,0.01278317,0.00319579
1691759714471209,0.09576806,-0.03351882,9.99339771,0.02024002,0.02024002,0.01171791
1691759714473239,0.19153613,-0.02873042,9.73482418,0.01917476,0.02237055,0.01597897
1691759714475271,-0.04309563,0.01915361,9.97903252,0.03515373,0.02876214,0.02450108
1691759714477291,0.04788403,0.05746084,9.91199493,0.03834952,0.02237055,0.02130529
1691759714479190,0.03830723,0.04788403,9.85453415,0.03728426,0.01278317,0.00639159
1691759714481216,-0.10055647,-0.01915361,10.05085850,0.03941479,0.01065264,0.00745685
1691759714483220,0.13886370,-0.02873042,9.78749657,0.04367584,0.01065264,0.00319579
1691759714485345,0.03830723,0.00478840,9.95030212,0.02876214,0.00106526,-0.00426106
1691759714487229,0.02394202,0.02873042,9.99818611,0.01704423,0.00319579,-0.00213053
1691759714489206,0.16759412,-0.05746084,9.84495735,0.02237055,0.00852212,-0.00639159
1691759714491451,-0.01436521,-0.10534488,10.11310768,0.03089267,0.00000000,-0.01704423
1691759714493261,0.15322891,-0.01436521,10.00776291,0.00958738,-0.01810949,-0.02130529
1691759714495206,0.05746084,-0.07182605,10.14183807,0.00000000,-0.03834952,-0.02024002
1691759714497234,0.00478840,0.00957681,10.31900978,0.00639159,-0.04474111,-0.02130529
1691759714499230,0.23463176,0.12928689,10.12268448,0.00000000,-0.05219796,-0.01917476
1691759714501228,-0.02394202,0.07661445,10.30943298,-0.01171791,-0.05965481,-0.01278317
1691759714503228,0.07661445,0.11971009,10.18972206,0.00958738,-0.05752428,-0.00319579
1691759714505244,0.05267244,-0.00957681,10.18972206,0.02556635,-0.05219796,0.00000000
1691759714507250,-0.04788403,-0.05746084,10.36210537,0.01171791,-0.04687164,-0.00319579
1691759714509197,0.21068975,0.07182605,10.14662647,0.00639159,-0.04900216,0.00000000
1691759714511218,-0.00957681,0.08140286,10.31900978,0.02130529,-0.03728426,0.00213053
1691759714513226,0.08140286,0.31603462,10.22802925,0.00852212,-0.03728426,-0.00319579
1691759714515279,0.08619126,0.16759412,10.18972206,-0.00426106,-0.04261058,0.01065264
1691759714517245,-0.17238252,-0.12449849,10.38125896,-0.00639159,-0.05006743,0.02450108
1691759714519183,0.13886370,0.00478840,10.15620327,-0.01597897,-0.06711166,0.02556635
1691759714521207,0.06703765,-0.08619126,10.33337498,-0.02450108,-0.11078750,0.02343582
1691759714523230,0.18674773,0.06224924,10.30464458,-0.02130529,-0.12676647,0.03089267
1691759714525258,0.38307226,0.15322891,10.22324085,-0.00213053,-0.13954964,0.02450108
1691759714527239,0.11013328,-0.06703765,10.42435455,-0.01171791,-0.14594123,0.02024002
1691759714529180,0.26336220,0.07661445,10.20408726,-0.00745685,-0.15659387,0.03089267
1691759714531222,0.01915361,-0.07182605,10.37168217,-0.01065264,-0.14913702,0.02343582
1691759714533260,-0.00478840,-0.01915361,10.31900978,-0.01491370,-0.14807175,0.01278317
1691759714535246,0.27293900,0.21547815,10.13226128,-0.03408846,-0.14807175,0.01704423
1691759714537199,-0.00957681,-0.07182605,10.41956615,-0.03089267,-0.15126754,0.01704423
1691759714539208,0.25857377,0.11492168,10.17535686,-0.03621899,-0.14487596,-0.00319579
1691759714541241,0.13407530,-0.02873042,10.26154804,-0.04048005,-0.14487596,-0.00639159
1691759714543226,-0.11492168,-0.28251579,10.29985619,-0.05432849,-0.15978967,0.01491370
1691759714545207,0.14844051,0.06224924,10.07001209,-0.06072007,-0.16831177,0.02024002
1691759714547244,-0.11492168,-0.06703765,10.39562416,-0.06072007,-0.17257284,0.01384844
1691759714549202,0.12449849,0.11971009,10.14662647,-0.05858954,-0.16511598,0.02343582
1691759714551232,0.14844051,0.17238252,10.10831928,-0.06072007,-0.15552860,0.04687164
1691759714553231,-0.13886370,-0.16759412,10.22802925,-0.05326322,-0.12676647,0.04474111
1691759714555197,0.11013328,0.09097967,9.88805294,-0.03515373,-0.10546118,0.03302320
1691759714557271,-0.18195933,-0.00957681,10.18972206,-0.01597897,-0.08628642,0.02769688
1691759714559227,-0.13886370,0.09097967,10.08437729,-0.00532632,-0.07776430,0.01491370
1691759714561238,0.04309563,0.36391866,9.94072533,0.01597897,-0.08096009,0.01171791
1691759714563203,-0.23942018,0.11492168,10.19451046,0.02450108,-0.07776430,-0.00532632
1691759714565218,0.03830723,0.24899697,9.90720654,0.01171791,-0.06178534,-0.00106526
1691759714567227,-0.11013328,0.09576806,10.05085850,-0.00852212,-0.03621899,-0.00639159
1691759714569205,-0.25378537,-0.11971009,10.02212811,0.00213053,-0.01491370,0.00532632
1691759714571231,-0.01915361,0.20111294,9.75397778,0.02769688,0.02024002,0.00106526
1691759714573199,-0.29209262,0.11492168,10.03649330,0.03408846,0.05219796,0.01597897
1691759714575250,-0.18674773,0.21547815,9.82101536,0.03408846,0.07563377,0.02130529
1691759714577238,-0.14365210,0.29209262,9.71567059,0.04154531,0.10759171,0.02450108
1691759714579191,-0.25378537,0.11971009,9.85932255,0.05752428,0.12996227,0.02982740
1691759714581214,0.02873042,0.31603462,9.57201862,0.05006743,0.13848437,0.03834952
1691759714583260,-0.05746084,0.11492168,9.73961258,0.03941479,0.12144014,0.03302320
1691759714585214,-0.17238252,0.02394202,9.77313137,0.04154531,0.10120012,0.02450108
1691759714587233,0.03830723,0.21068975,9.61511421,0.05432849,0.03728426,0.03408846
1691759714589205,-0.11013328,0.04788403,9.86889935,0.04687164,-0.01917476,0.03408846
1691759714591226,0.02394202,0.00957681,9.80186176,0.02982740,-0.04687164,0.04687164
1691759714593236,0.19153613,0.09097967,9.73961258,0.01810949,-0.12570120,0.02876214
1691759714595199,0.02394202,-0.05267244,9.89762974,-0.01065264,-0.14168017,0.02343582
1691759714597206,0.17717093,0.06224924,9.54807663,-0.02024002,-0.14487596,0.02130529
1691759714599228,0.33518824,0.10534488,9.59117222,-0.02556635,-0.13422331,0.02556635
1691759714601224,0.00478840,0.01915361,9.63426781,-0.02663161,-0.10013486,0.01171791
1691759714603220,0.16280572,0.05267244,9.51455784,-0.04154531,-0.05432849,0.01384844
1691759714605205,-0.04788403,0.05746084,9.63426781,-0.03195793,-0.00639159,0.03621899
1691759714607238,-0.17717093,-0.08140286,9.67257500,-0.00745685,0.01491370,0.03195793
1691759714609226,-0.12449849,0.18195933,9.38527107,-0.02450108,0.08202536,0.02663161
1691759714611242,-0.38307226,0.07182605,9.67736340,-0.02556635,0.10546118,0.03515373
1691759714613205,0.04309563,0.14365210,9.41400146,-0.00958738,0.13954964,0.02876214
1691759714615238,-0.21547815,0.21068975,9.38527107,0.00106526,0.14700650,0.02982740
1691759714617236,-0.36391866,0.04788403,9.63905621,0.01491370,0.14061491,0.02769688
1691759714619215,-0.08140286,0.19153613,9.46667385,0.04154531,0.10972223,0.03195793
1691759714621219,-0.01915361,0.21068975,9.57680702,0.06391586,0.07243798,0.03515373
1691759714623206,-0.03351882,0.10055647,9.66299820,0.04580637,0.05539375,0.03089267
1691759714625238,0.23942018,0.29688102,9.44752026,0.04900216,0.01810949,0.02343582
1691759714627213,0.02873042,0.06703765,9.71088219,0.03089267,0.00213053,0.02024002
1691759714629208,0.07661445,0.04309563,9.61032581,0.00106526,-0.00745685,0.00745685
1691759714631195,0.17238252,0.13407530,9.53371143,-0.01491370,0.00319579,0.00745685
1691759714633263,0.06703765,0.09097967,9.61032581,-0.01384844,0.01491370,0.02024002
1691759714635184,0.09576806,0.20590134,9.44273186,-0.00426106,0.03408846,0.01810949
1691759714637279,-0.08619126,-0.06703765,9.73961258,0.00426106,0.05006743,0.00745685
1691759714639214,0.04309563,0.00000000,9.59596062,0.02343582,0.03089267,0.01171791
1691759714641290,0.03830723,0.34955344,9.52892303,0.02663161,0.01704423,0.02556635
1691759714643226,-0.14365210,0.04309563,9.79228497,0.04154531,-0.00639159,0.01917476
1691759714645259,0.05267244,-0.02394202,9.67736340,0.03941479,-0.02876214,0.04048005
1691759714647204,0.08619126,0.12928689,9.72045898,0.03834952,-0.07030746,0.04154531
1691759714649164,0.00957681,0.03351882,9.95509052,0.02556635,-0.08735169,0.03408846
1691759714651288,0.11013328,0.10055647,9.76355457,0.01704423,-0.10439591,0.02343582
1691759714653197,0.06703765,0.12928689,9.95509052,0.01491370,-0.11611383,0.03302320
1691759714655241,0.23463176,0.07661445,9.84016895,0.01704423,-0.12144014,0.02663161
1691759714657238,0.09576806,0.16280572,9.83538055,0.00532632,-0.10439591,0.02982740
1691759714659282,0.11013328,0.07661445,9.96945572,0.00213053,-0.07989483,0.03515373
1691759714661210,0.04788403,0.05267244,9.80665016,0.00000000,-0.05432849,0.03941479
1691759714663233,-0.21068975,-0.00478840,10.01733971,-0.00106526,-0.00852212,0.02663161
1691759714665236,0.04788403,0.02873042,9.96466732,-0.00639159,0.00532632,0.03408846
1691759714667444,0.02873042,0.13407530,9.80665016,-0.02450108,0.04580637,0.03089267
1691759714669193,-0.16280572,-0.00957681,9.98382092,-0.01810949,0.06711166,0.01917476
1691759714671222,-0.07182605,0.02873042,9.88805294,-0.01171791,0.07350325,0.01384844
1691759714673194,-0.13886370,0.11492168,9.84016895,-0.00106526,0.07776430,0.01384844
1691759714675261,0.02873042,0.13886370,9.99818611,0.01065264,0.08628642,0.00213053
1691759714677231,0.00478840,0.22026655,9.90720654,0.02556635,0.07350325,0.01384844
1691759714679219,-0.07661445,0.05746084,10.04128170,0.02663161,0.05432849,0.03408846
1691759714681204,0.08619126,0.08140286,10.01733971,0.01491370,0.03834952,0.04261058
1691759714683243,0.08619126,0.03351882,10.17056847,0.03302320,0.00532632,0.04580637
1691759714685267,0.17238252,0.11013328,10.14183807,0.03195793,0.00106526,0.04261058
1691759714687417,0.19153613,0.21068975,10.09395409,0.03834952,-0.03941479,0.04048005
1691759714689183,0.11492168,0.14365210,10.28549004,0.03941479,-0.07137272,0.02769688
1691759714691230,0.17717093,0.05746084,10.20887566,0.02982740,-0.07137272,0.02343582
1691759714693227,0.08619126,-0.04788403,10.19451046,0.02769688,-0.08948221,0.03089267
1691759714695262,0.16759412,0.08140286,10.17535686,0.03834952,-0.11930962,0.02343582
1691759714697328,0.12449849,0.01915361,10.16578007,0.02769688,-0.11717909,0.02556635
1691759714699187,0.07182605,0.08619126,10.25197124,0.00532632,-0.11078750,0.02663161
1691759714701237,0.20111294,0.13886370,10.14183807,0.02024002,-0.11930962,0.02237055
1691759714703238,-0.01436521,0.05746084,10.10353088,0.02450108,-0.10652644,0.03302320
1691759714705208,-0.05267244,0.16759412,10.03170490,0.04048005,-0.08096009,0.02130529
1691759714707231,-0.14365210,-0.00478840,9.97903252,0.04261058,-0.03302320,0.03621899
1691759714709226,-0.20111294,0.12449849,9.95509052,0.02876214,0.01704423,0.02237055
1691759714711239,-0.14365210,0.11971009,9.87847614,0.01810949,0.03195793,0.02982740
1691759714713201,-0.29209262,0.01436521,9.97424412,0.00106526,0.07137272,0.02450108
1691759714715207,-0.07661445,0.10055647,9.85932255,-0.01491370,0.10226539,0.04367584
1691759714717318,-0.13407530,-0.00478840,9.94072533,-0.02663161,0.10013486,0.02024002
1691759714719187,-0.16759412,0.14365210,9.95509052,-0.02343582,0.08202536,0.01704423
1691759714721231,0.00478840,0.16280572,9.83538055,-0.01384844,0.06924219,0.02024002
1691759714723203,-0.20590134,0.08619126,10.03649330,0.00852212,0.05006743,0.00852212
1691759714725272,0.08619126,0.20590134,9.93114853,0.02556635,0.02556635,0.00639159
1691759714727241,-0.00957681,0.07661445,10.04128170,0.01917476,-0.00639159,0.00532632
1691759714729211,-0.06703765,0.11971009,10.09874249,0.02237055,-0.03089267,0.00852212
1691759714731244,0.20590134,0.17717093,9.96466732,0.03728426,-0.05432849,0.00213053
1691759714733241,-0.05267244,0.04309563,10.19929886,0.03515373,-0.05752428,0.00745685
1691759714735277,0.09576806,0.16759412,9.99339771,0.03302320,-0.06391586,0.00532632
1691759714737253,-0.05746084,0.11971009,9.96945572,0.04793690,-0.04048005,0.01278317
1691759714739189,-0.20111294,0.15322891,9.93593693,0.04048005,-0.00639159,0.01810949
1691759714741266,0.03830723,0.29688102,9.63426781,0.03941479,0.01917476,0.01065264
1691759714743293,-0.26815060,0.05746084,9.85453415,0.04261058,0.07989483,0.02556635
1691759714745231,-0.09097967,0.21068975,9.72524738,0.05432849,0.10546118,0.01491370
1691759714747370,-0.03351882,0.13407530,9.63426781,0.04048005,0.13315806,0.00745685
1691759714749187,-0.26815060,0.04309563,9.84495735,0.02769688,0.13741912,0.01384844
1691759714751275,0.00478840,0.24420857,9.58638382,0.02876214,0.12676647,0.02130529
1691759714753256,-0.17238252,0.09576806,9.71088219,0.04261058,0.08522116,-0.00106526
1691759714755273,-0.02394202,0.13886370,9.69172859,0.03728426,0.07030746,0.02130529
1691759714757238,0.16759412,0.07661445,9.56723022,0.05006743,0.03834952,0.01704423
1691759714759233,-0.11971009,-0.10055647,9.79228497,0.04367584,0.02343582,0.02556635
1691759714761303,0.06224924,0.19153613,9.62469101,0.03941479,0.04367584,0.00745685
1691759714763251,-0.02394202,0.04788403,9.67257500,0.04474111,0.04580637,0.03089267
1691759714765226,-0.02394202,0.19632454,9.80665016,0.04474111,0.04261058,0.00639159
1691759714767283,0.22984336,0.21547815,9.75397778,0.02556635,0.04580637,0.02024002
1691759714769229,-0.00957681,-0.02873042,9.89762974,0.02769688,0.03834952,0.01171791
1691759714771275,0.12928689,0.15322891,9.88326454,0.02982740,0.03515373,0.03302320
1691759714773220,-0.04309563,0.00478840,9.95987892,0.03408846,0.04367584,0.00426106
1691759714775221,-0.10534488,0.03830723,10.11789608,0.02343582,0.04048005,0.01171791
1691759714777296,0.10534488,0.02394202,10.09395409,0.00745685,0.03515373,0.00213053
1691759714779214,-0.07661445,-0.14844051,10.16099167,-0.01917476,0.03408846,0.00106526
1691759714781211,0.15801731,0.20590134,10.12747288,-0.02130529,0.02876214,-0.00319579
1691759714783244,0.15322891,0.00957681,10.28549004,0.00213053,0.00213053,-0.00213053
1691759714785280,0.03351882,0.03830723,10.30943298,0.00958738,-0.02343582,-0.01065264
1691759714787284,0.12449849,0.11013328,10.29027843,-0.00639159,-0.05752428,-0.03089267
1691759714789185,0.00000000,-0.10055647,10.36210537,0.00000000,-0.10013486,-0.01917476
1691759714791231,0.18674773,0.18674773,10.29027843,0.00319579,-0.10759171,-0.01065264
1691759714793237,0.15801731,-0.02394202,10.39562416,-0.01065264,-0.12783173,-0.02663161
1691759714795202,0.19632454,-0.02873042,10.34774017,-0.01384844,-0.13422331,-0.02450108
1691759714797270,0.13886370,0.17238252,10.33337498,0.01384844,-0.13954964,-0.00639159
1691759714799182,-0.01436521,-0.05746084,10.30943298,-0.00213053,-0.11398330,-0.01597897
1691759714801270,0.08140286,0.23463176,10.23281765,0.01491370,-0.11291803,-0.01810949
1691759714803237,-0.10534488,-0.02873042,10.36689377,0.01065264,-0.07243798,0.00639159
1691759714805258,-0.08619126,0.03351882,10.18014526,0.02237055,-0.02769688,-0.02024002
1691759714807239,-0.06703765,0.29209262,10.18493366,0.02343582,0.00106526,-0.01597897
1691759714809254,-0.22984336,0.13407530,10.13704967,0.01491370,0.06498113,0.00106526
1691759714811393,-0.08140286,0.34955344,9.93593693,0.00852212,0.12357067,-0.01384844
1691759714813196,-0.24420857,0.12449849,10.11310768,0.01278317,0.15339808,-0.01704423
1691759714815230,-0.15801731,0.17238252,9.83538055,0.04048005,0.18322548,-0.01597897
1691759714817260,-0.22984336,0.27772740,9.84974575,0.04580637,0.20346551,-0.02237055
1691759714819232,-0.42616791,0.01436521,9.95509052,0.05539375,0.21731395,-0.01065264
1691759714821235,-0.07661445,0.34476504,9.55286503,0.05219796,0.21411815,-0.00319579
1691759714823298,-0.30645782,0.11013328,9.77791977,0.06072007,0.21092236,0.00319579
1691759714825232,-0.11013328,0.06224924,9.69172859,0.06285060,0.19281286,0.00958738
1691759714827399,0.08140286,0.25378537,9.64863300,0.05645901,0.18109496,-0.00319579
1691759714829194,-0.25857377,0.08619126,9.87368774,0.04261058,0.17150757,-0.00213053
1691759714831317,-0.06224924,-0.01436521,9.71088219,0.04367584,0.15872440,0.00213053
1691759714833222,-0.06703765,0.18195933,9.86889935,0.04154531,0.13741912,-0.01917476
1691759714835332,-0.18674773,0.03351882,9.96466732,0.03515373,0.12144014,-0.01810949
1691759714837254,0.14844051,0.16280572,9.72524738,0.04048005,0.08735169,-0.03089267
1691759714839194,-0.11971009,-0.04309563,10.04128170,0.04367584,0.07563377,-0.01810949
1691759714841205,0.07661445,0.08619126,9.95030212,0.04793690,0.06924219,-0.03834952
1691759714843254,0.17717093,0.18674773,9.81143856,0.03302320,0.04474111,-0.01171791
1691759714845251,0.08619126,0.06703765,10.12268448,0.02237055,0.02769688,-0.02876214
1691759714847267,0.18674773,0.10055647,10.00776291,0.02130529,0.02556635,-0.01278317
1691759714849147,0.00957681,0.07661445,10.20408726,0.00958738,0.01491370,-0.02876214
1691759714851324,0.13407530,-0.07661445,10.12747288,-0.00426106,0.01491370,-0.01491370
1691759714853269,-0.09097967,-0.08619126,10.20887566,0.00426106,0.03089267,-0.00852212
1691759714855212,-0.02873042,0.08619126,10.21366405,-0.00639159,0.03515373,-0.01810949
1691759714857241,0.17238252,0.00957681,10.19451046,-0.01384844,0.03302320,-0.02556635
1691759714859195,-0.06224924,-0.01436521,10.24718285,-0.01597897,0.05432849,-0.02769688
1691759714861224,-0.10534488,0.00957681,10.20887566,0.01597897,0.06498113,-0.03195793
1691759714863228,0.01436521,-0.04788403,10.21845245,0.02982740,0.06711166,-0.03515373
1691759714865200,-0.01436521,0.02394202,10.26154804,0.02024002,0.06072007,-0.01491370
1691759714867209,0.05267244,0.02394202,10.22324085,0.01704423,0.06604639,-0.02769688
1691759714869241,-0.01436521,0.02394202,10.26633644,0.01810949,0.07243798,-0.03621899
1691759714871405,0.07182605,0.15801731,10.08916569,0.01491370,0.08841695,-0.03302320
1691759714873231,-0.07661445,0.03830723,10.22324085,0.00213053,0.11504856,-0.02556635
1691759714875262,-0.05267244,-0.00478840,10.11789608,0.00745685,0.13209279,-0.02450108
1691759714877285,-0.03830723,0.00957681,9.97903252,0.01065264,0.15659387,-0.02556635
1691759714879198,-0.18195933,0.07661445,10.11789608,0.02556635,0.16511598,-0.03195793
1691759714881203,-0.02873042,0.17717093,9.92157173,0.03408846,0.16192019,-0.03941479
1691759714883215,-0.00957681,0.14365210,10.09395409,0.05432849,0.15552860,-0.04154531
1691759714885310,0.01436521,0.14844051,10.07001209,0.06391586,0.13848437,-0.03302320
1691759714887248,0.13407530,0.08619126,9.94072533,0.06391586,0.10546118,-0.02237055
1691759714889195,-0.10055647,0.00957681,10.20887566,0.03728426,0.07563377,-0.02343582
1691759714891232,0.07661445,0.05746084,10.00776291,0.01278317,0.06285060,-0.02237055
1691759714893267,0.07182605,-0.04309563,10.09395409,0.00958738,0.04367584,-0.02130529
1691759714895220,0.16280572,0.04309563,10.17535686,0.00000000,0.01704423,-0.02237055
1691759714897268,0.33518824,0.06703765,9.99339771,-0.00745685,0.00106526,-0.02663161
1691759714899182,0.18674773,0.11971009,10.22802925,-0.00745685,0.01065264,-0.02982740
1691759714901276,0.35434186,0.06703765,10.13704967,0.00532632,0.00106526,-0.01810949
1691759714903257,0.09576806,-0.03830723,10.19929886,-0.00745685,-0.01917476,-0.01810949
1691759714905252,0.00000000,0.08619126,10.31422138,-0.02450108,-0.04048005,-0.02663161
1691759714907203,0.13886370,-0.14844051,10.17535686,-0.01810949,-0.05965481,-0.02450108
1691759714909184,0.08140286,0.07182605,10.36210537,-0.02663161,-0.06391586,-0.02343582
1691759714911277,0.26815060,0.01436521,10.30464458,-0.03195793,-0.08628642,-0.02982740
1691759714913257,0.03351882,0.06224924,10.28070164,-0.05432849,-0.08415589,-0.01384844
1691759714915228,0.10055647,0.23463176,10.27112484,-0.05432849,-0.07456851,-0.00532632
1691759714917283,0.07661445,-0.16280572,10.17535686,-0.06072007,-0.06072007,-0.02130529
1691759714919201,-0.01436521,0.13886370,10.21845245,-0.04261058,-0.05326322,-0.02024002
1691759714921236,0.04788403,-0.05746084,10.24239445,-0.03941479,-0.04900216,-0.01384844
1691759714923204,-0.03351882,-0.01915361,10.20887566,-0.03089267,-0.03408846,-0.02556635
1691759714925228,0.04788403,0.33518824,10.25197124,-0.02024002,-0.03089267,-0.02876214
1691759714927278,0.03351882,-0.13886370,10.27112484,-0.02556635,-0.00852212,-0.03408846
1691759714929219,0.01915361,0.25857377,10.22324085,-0.03195793,0.00639159,-0.04687164
1691759714931241,-0.07182605,-0.21068975,10.29027843,-0.04687164,0.02982740,-0.05113269
1691759714933229,-0.10534488,-0.07661445,10.21845245,-0.04900216,0.04793690,-0.04474111
1691759714935297,-0.07182605,0.25378537,10.11789608,-0.05539375,0.06604639,-0.03515373
1691759714937228,-0.21068975,-0.22984336,10.17056847,-0.06285060,0.08735169,-0.02876214
1691759714939229,-0.06224924,0.19632454,10.00776291,-0.05965481,0.09374327,-0.03408846
1691759714941204,-0.13407530,0.09097967,10.10353088,-0.03834952,0.09161274,-0.04474111
1691759714943250,-0.11971009,0.06224924,10.06043530,-0.02130529,0.08096009,-0.03834952
1691759714945249,0.11013328,0.39743748,9.92157173,-0.01810949,0.07669904,-0.02769688
1691759714947306,-0.07182605,-0.05267244,10.07480049,-0.00745685,0.06711166,-0.00852212
1691759714949191,0.15322891,0.17717093,9.87847614,-0.00639159,0.04048005,0.00213053
1691759714951278,0.01915361,0.06703765,10.00297451,-0.02769688,0.01171791,0.00000000
1691759714953288,0.23463176,0.17717093,9.86411095,-0.04048005,-0.04474111,0.00426106
1691759714955264,0.25378537,0.18195933,9.86889935,-0.04580637,-0.07137272,0.00319579
1691759714957212,0.04788403,-0.06224924,10.05564690,-0.05858954,-0.09587380,0.00639159
1691759714959154,0.35434186,0.25857377,9.81143856,-0.05432849,-0.10865697,-0.00852212
1691759714961370,0.00478840,-0.09097967,10.02212811,-0.05539375,-0.10759171,-0.00426106
1691759714963222,0.17238252,-0.00478840,9.90241814,-0.04687164,-0.09480853,-0.01065264
1691759714965207,0.21547815,0.20590134,9.64384460,-0.04367584,-0.06391586,0.02556635
1691759714967198,-0.14844051,-0.04788403,9.80186176,-0.04793690,-0.02024002,-0.00213053
1691759714969231,-0.04788403,0.20590134,9.61511421,-0.03621899,-0.00319579,0.00319579
1691759714971241,-0.11492168,0.14365210,9.61511421,-0.02556635,0.02663161,-0.02556635
1691759714973309,-0.13886370,0.08619126,9.69172859,-0.00745685,0.03621899,-0.02663161
1691759714975220,-0.18195933,0.16280572,9.59117222,0.01278317,0.05539375,-0.03302320
1691759714977258,-0.09097967,0.11492168,9.69172859,0.01917476,0.04900216,-0.02237055
1691759714979228,0.03830723,0.30166942,9.62469101,0.02024002,0.03728426,-0.01491370
1691759714981209,0.00478840,0.25857377,9.62469101,0.02237055,0.02237055,-0.01278317
1691759714983248,-0.09097967,0.07661445,9.66778660,0.01171791,0.02237055,-0.00639159
1691759714985223,0.12449849,0.14844051,9.59117222,-0.00319579,0.01810949,-0.01384844
1691759714987243,-0.07661445,-0.08140286,9.72045898,0.00319579,0.00426106,-0.02343582
1691759714989216,0.03351882,0.08140286,9.65820980,-0.00213053,0.00958738,-0.02556635
1691759714991283,0.02394202,0.12449849,9.74918938,-0.01491370,0.00426106,-0.02343582
1691759714993224,0.05746084,0.01436521,9.76355457,-0.03408846,-0.01491370,-0.02876214
1691759714995443,0.26336220,0.17238252,9.77313137,-0.03728426,-0.01597897,-0.01810949
1691759714997269,-0.00957681,-0.04788403,9.92157173,-0.04048005,-0.03302320,-0.02130529
1691759714999185,0.16280572,0.10534488,9.85932255,-0.04474111,-0.04900216,-0.03195793
1691759715001275,0.07661445,-0.01436521,10.13704967,-0.04793690,-0.07563377,-0.02769688
1691759715003237,0.05746084,-0.08140286,10.04607010,-0.04687164,-0.08522116,-0.03089267
1691759715005232,0.19153613,0.08140286,9.99818611,-0.04048005,-0.09587380,-0.03408846
1691759715007216,0.06703765,-0.00957681,10.23281765,-0.03941479,-0.10652644,-0.02237055
1691759715009152,0.28251579,0.12449849,10.03649330,-0.02237055,-0.12357067,-0.02556635
1691759715011331,0.00478840,-0.01915361,10.31900978,-0.01384844,-0.11930962,-0.02876214
1691759715013204,0.14844051,0.02873042,10.16578007,-0.01491370,-0.11824435,-0.01810949
1691759715015238,0.13886370,0.14365210,10.10831928,-0.03728426,-0.12357067,-0.01065264
1691759715017215,-0.06703765,-0.03830723,10.29506683,-0.05752428,-0.12463594,-0.01065264
1691759715019212,0.17717093,0.00957681,10.13226128,-0.05326322,-0.12889700,-0.01278317
1691759715021218,-0.00957681,0.06224924,10.35252857,-0.04580637,-0.13848437,-0.00426106
1691759715023227,0.05267244,0.02394202,10.24239445,-0.06178534,-0.12783173,-0.00745685
1691759715025221,0.08140286,0.11971009,10.18493366,-0.06711166,-0.12357067,-0.00532632
1691759715027239,-0.10055647,0.00000000,10.35731697,-0.07456851,-0.10972223,-0.01065264
1691759715029211,0.08140286,-0.03830723,10.11789608,-0.07989483,-0.09906960,-0.01065264
1691759715031248,-0.16280572,-0.03351882,10.34295177,-0.06391586,-0.08309063,-0.01171791
1691759715033220,-0.10055647,0.01436521,10.26154804,-0.04580637,-0.06285060,-0.01704423
1691759715035220,0.02873042,0.13407530,10.16099167,-0.04261058,-0.04687164,-0.01917476
1691759715037282,-0.09576806,0.11492168,10.32379818,-0.03728426,-0.04048005,-0.01171791
1691759715039195,0.15801731,0.10534488,10.10353088,-0.01810949,-0.04367584,0.00319579
1691759715041204,-0.10055647,0.16759412,10.28070164,-0.01810949,-0.03728426,-0.00639159
1691759715043241,-0.10055647,0.07661445,10.27591324,-0.01491370,-0.03089267,-0.00532632
1691759715045315,0.05746084,0.04309563,10.14662647,-0.01171791,-0.03515373,-0.00426106
1691759715047215,-0.11971009,0.06224924,10.32379818,-0.03515373,-0.04261058,0.00426106
1691759715049280,-0.20590134,-0.16759412,10.36210537,-0.04580637,-0.04900216,-0.00639159
1691759715051254,-0.36391866,-0.21547815,10.49618053,-0.04261058,-0.07137272,0.00213053
1691759715053262,-0.26336220,-0.38786069,10.38604736,-0.04580637,-0.08522116,-0.01278317
1691759715055251,-0.30645782,-0.14365210,10.41477776,-0.05432849,-0.11291803,-0.01597897
1691759715057204,-0.18195933,-0.10055647,10.38604736,-0.05432849,-0.11717909,-0.01384844
1691759715059189,0.00000000,-0.15322891,10.24718285,-0.03941479,-0.12250541,-0.00639159
1691759715061257,-0.07182605,0.08140286,10.29506683,-0.04261058,-0.13422331,-0.00319579
1691759715063329,0.02394202,-0.08140286,10.20887566,-0.02876214,-0.14061491,0.00213053
1691759715065249,-0.02394202,-0.00478840,10.20887566,-0.03621899,-0.11291803,0.00000000
1691759715067265,-0.00478840,0.05267244,10.19929886,-0.03089267,-0.11398330,-0.00106526
1691759715069223,0.04309563,-0.02873042,10.19929886,-0.02556635,-0.11398330,0.02024002
1691759715071233,-0.03830723,0.11013328,10.17056847,-0.00745685,-0.09054748,0.01491370
1691759715073257,0.00957681,0.06224924,10.13226128,-0.00319579,-0.08735169,0.00852212
1691759715075295,0.03351882,0.19632454,10.09874249,-0.02556635,-0.07243798,0.00000000
1691759715077240,-0.02873042,0.04309563,10.07480049,-0.03195793,-0.06498113,-0.00106526
1691759715079219,-0.08619126,-0.03830723,10.13704967,-0.02876214,-0.05965481,-0.01171791
1691759715081378,-0.00957681,0.12449849,9.98860931,-0.01597897,-0.04793690,-0.00639159
1691759715083206,-0.09097967,0.06703765,10.02212811,-0.01065264,-0.03408846,0.00958738
1691759715085284,-0.06703765,0.14365210,10.03170490,-0.00106526,-0.02769688,0.02237055
1691759715087303,0.05267244,0.11971009,9.87847614,-0.00106526,-0.00958738,0.01278317
1691759715089227,-0.03351882,0.06703765,9.99818611,-0.01597897,0.00426106,0.01171791
1691759715091248,0.08140286,0.18674773,9.81622696,-0.01491370,0.00000000,0.00319579
1691759715093199,-0.01915361,0.01436521,9.89284134,-0.01491370,0.00426106,-0.00745685
1691759715095268,-0.08140286,0.15801731,10.02212811,-0.00852212,0.00000000,-0.01597897
1691759715097240,0.10055647,0.05746084,9.79707336,-0.00852212,-0.01278317,-0.01491370
1691759715099239,-0.06703765,0.00000000,9.99339771,0.01704423,-0.01597897,-0.02130529
1691759715101209,0.04788403,0.18195933,9.91678333,0.02556635,-0.02130529,-0.02237055
1691759715103269,0.11013328,0.09097967,9.86889935,0.01704423,-0.03195793,-0.01917476
1691759715105257,0.00478840,0.21547815,10.04128170,0.00745685,-0.04900216,-0.00639159
1691759715107343,0.14844051,-0.00478840,9.82580376,0.01065264,-0.06711166,0.00213053
1691759715109192,0.03830723,0.23463176,10.07001209,0.00745685,-0.09054748,-0.00426106
1691759715111251,0.12449849,0.10055647,9.99339771,0.00000000,-0.09480853,0.00319579
1691759715113238,0.17717093,-0.09097967,9.91199493,0.00532632,-0.10226539,0.01810949
1691759715115264,0.07661445,0.25378537,10.05564690,-0.00745685,-0.09267800,0.01597897
1691759715117212,0.16280572,-0.02873042,9.90241814,-0.00958738,-0.08628642,0.02769688
1691759715119215,-0.03830723,0.12449849,9.91678333,-0.00639159,-0.07776430,0.01704423
1691759715121258,-0.01436521,0.21547815,9.90241814,0.01278317,-0.05645901,0.01065264
1691759715123261,0.02394202,-0.07182605,9.79228497,0.02769688,-0.04261058,0.00639159
1691759715125275,-0.04788403,0.29209262,9.89762974,0.04154531,-0.03621899,0.01810949
1691759715127236,0.00000000,-0.06224924,9.86411095,0.05326322,-0.03515373,0.01810949
1691759715129256,-0.11013328,0.10055647,9.87368774,0.04474111,-0.02982740,0.02556635
1691759715131249,-0.03351882,0.20111294,9.93114853,0.03941479,-0.03302320,0.03515373
1691759715133258,-0.02394202,-0.12449849,9.95509052,0.03621899,-0.03195793,0.01278317
1691759715135216,0.02873042,0.24420857,9.98860931,0.02450108,-0.03302320,0.01171791
1691759715137380,0.06224924,0.03830723,9.98860931,0.01278317,-0.02343582,0.00639159
1691759715139216,0.00478840,0.13407530,9.92157173,0.00532632,-0.00532632,-0.01704423
1691759715141209,0.01436521,0.25857377,9.86411095,0.02130529,0.00639159,-0.01917476
1691759715143318,-0.09576806,-0.08140286,9.95987892,0.02982740,0.01597897,-0.01597897
1691759715145241,-0.02873042,0.13407530,9.90241814,0.02663161,0.02769688,-0.01491370
1691759715147292,-0.07661445,-0.05746084,9.94551373,0.00958738,0.03302320,-0.00852212
1691759715149230,-0.18674773,-0.01915361,9.99339771,0.01917476,0.03515373,-0.00106526
1691759715151217,0.04788403,0.18195933,9.83538055,0.02024002,0.03408846,-0.01065264
1691759715153256,-0.04309563,-0.04309563,10.06522369,0.01704423,0.03408846,-0.02024002
1691759715155319,0.12928689,0.17717093,10.00297451,0.01917476,0.02450108,-0.01491370
1691759715157244,0.05267244,0.08140286,9.98860931,0.01597897,0.01597897,-0.01278317
1691759715159195,-0.10534488,0.07182605,10.07480049,0.00958738,-0.00532632,-0.00852212
1691759715161243,0.20111294,0.18195933,9.91678333,0.01171791,-0.02450108,-0.01704423
1691759715163245,0.02394202,-0.11971009,10.12747288,0.01278317,-0.03941479,-0.00958738
1691759715165272,0.15322891,0.18674773,10.05085850,0.00958738,-0.04367584,-0.01384844
1691759715167209,0.10055647,0.03351882,10.04607010,0.01278317,-0.04793690,-0.00532632
1691759715169255,-0.03351882,0.05267244,10.13226128,0.00426106,-0.04474111,-0.00426106
1691759715171259,0.04788403,0.00000000,10.06522369,-0.00852212,-0.03621899,0.01278317
1691759715173199,-0.08619126,-0.15322891,10.14183807,-0.00639159,-0.02130529,0.00426106
1691759715175253,0.02873042,0.17717093,10.09874249,-0.00319579,-0.00745685,0.01384844
1691759715177195,0.00000000,0.01436521,10.05085850,0.00319579,-0.00213053,0.01065264
1691759715179243,-0.13407530,0.15322891,10.18493366,0.01810949,0.00106526,0.01704423
1691759715181259,0.11013328,0.17717093,10.07001209,0.02556635,0.01065264,0.00426106
1691759715183225,-0.10055647,-0.07661445,10.15620327,0.03089267,0.01171791,0.00639159
1691759715185232,-0.00957681,0.30166942,10.12747288,0.02769688,0.00319579,0.00852212
1691759715187380,-0.00957681,-0.00957681,10.07480049,0.02876214,-0.00213053,0.00745685
1691759715189201,-0.00478840,0.33039984,10.13704967,0.02556635,0.00106526,0.01171791
1691759715191213,0.12449849,0.11013328,10.08437729,0.02556635,-0.00319579,0.01597897
1691759715193201,-0.04309563,-0.07182605,10.11789608,0.03621899,-0.02663161,0.00639159
1691759715195225,0.05267244,0.34955344,10.16578007,0.02663161,-0.03515373,-0.00106526
1691759715197266,0.03351882,-0.03830723,10.15620327,0.02769688,-0.04048005,-0.01171791
1691759715199186,0.02394202,0.10534488,10.07001209,0.01065264,-0.04261058,-0.00958738
1691759715201286,0.03351882,0.16759412,10.06522369,0.00745685,-0.04261058,-0.01065264
1691759715203217,-0.04309563,-0.08619126,10.05085850,-0.00213053,-0.03195793,-0.01278317
1691759715205255,0.09576806,0.32561144,9.99818611,0.01917476,-0.02769688,-0.00958738
1691759715207207,-0.00478840,-0.01436521,10.06522369,0.00745685,-0.01384844,-0.00319579
1691759715209190,0.06703765,0.19153613,9.90241814,0.00000000,-0.00106526,-0.00639159
1691759715211202,-0.01436521,0.20111294,10.02691650,0.00532632,0.00426106,0.00000000
1691759715213335,-0.13407530,-0.05746084,10.01255131,0.01278317,0.00532632,0.00532632
1691759715215204,0.05746084,0.34476504,9.90241814,0.01384844,0.01384844,0.00000000
1691759715217201,-0.13886370,-0.02394202,10.10831928,0.03195793,0.01597897,0.01065264
1691759715219175,0.03830723,0.16280572,9.89284134,0.04580637,0.02024002,0.00745685
1691759715221250,-0.04309563,0.22026655,9.91678333,0.04900216,0.01704423,-0.00106526
1691759715223228,-0.17717093,-0.07661445,9.95987892,0.05006743,0.02769688,-0.00639159
1691759715225238,0.11013328,0.22984336,9.78270817,0.04474111,0.02556635,0.01384844
1691759715227220,-0.14365210,-0.07182605,10.06043530,0.02130529,0.02450108,-0.00319579
1691759715229210,0.03830723,0.06703765,9.84016895,0.00532632,0.01704423,-0.00319579
1691759715231238,-0.00478840,0.10055647,9.86411095,-0.00958738,0.02769688,0.00532632
1691759715233206,-0.13886370,-0.08140286,9.96466732,-0.00106526,0.02876214,0.01704423
1691759715235273,0.18195933,0.23463176,9.73482418,0.01065264,0.03834952,0.01491370
1691759715237251,-0.13886370,-0.09097967,9.99818611,0.01065264,0.06498113,0.01384844
1691759715239200,-0.02394202,0.05267244,9.80186176,0.02024002,0.08202536,0.00319579
1691759715241211,-0.02394202,0.11492168,9.69651699,0.03089267,0.07989483,-0.00213053
1691759715243203,-0.26815060,-0.02394202,9.88805294,0.04900216,0.09800433,0.00639159
1691759715245253,0.08619126,0.23942018,9.68215179,0.05432849,0.10439591,0.00639159
1691759715247288,-0.06703765,0.00000000,9.78749657,0.06604639,0.10865697,0.00745685
1691759715249195,0.01915361,0.15801731,9.71088219,0.06924219,0.10652644,0.01491370
1691759715251202,0.07661445,0.21068975,9.61511421,0.06604639,0.10439591,0.00852212
1691759715253235,-0.15322891,0.00000000,9.76355457,0.06072007,0.09906960,0.01278317
1691759715255266,0.10534488,0.14365210,9.63905621,0.04900216,0.09693906,-0.00106526
1691759715257200,-0.08619126,-0.06224924,9.73003578,0.05645901,0.08202536,-0.00745685
1691759715259178,-0.02394202,0.08140286,9.71567059,0.05432849,0.07456851,-0.00852212
1691759715261212,-0.00957681,0.09576806,9.70609379,0.05539375,0.08096009,-0.00958738
1691759715263268,-0.13407530,-0.03830723,9.68694019,0.04900216,0.08202536,-0.01171791
1691759715265206,0.19153613,0.16759412,9.57201862,0.05113269,0.08202536,-0.00852212
1691759715267238,0.04309563,0.00000000,9.72524738,0.05326322,0.08948221,0.00532632
1691759715269205,0.11013328,0.08140286,9.57680702,0.05113269,0.10546118,0.00532632
1691759715271227,0.06224924,0.20111294,9.64384460,0.07137272,0.10546118,-0.00213053
1691759715273236,-0.14365210,0.03830723,9.67736340,0.07989483,0.09800433,-0.00532632
1691759715275312,0.09097967,0.24420857,9.55765343,0.09800433,0.09161274,-0.00213053
1691759715277217,-0.10055647,0.07182605,9.74440098,0.09693906,0.08841695,-0.00532632
1691759715279229,0.14844051,0.03830723,9.61990261,0.09800433,0.08415589,0.00319579
1691759715281248,0.10055647,0.21068975,9.72045898,0.07669904,0.06924219,0.01597897
1691759715283207,-0.08140286,0.04309563,9.79707336,0.08415589,0.05006743,0.01810949
1691759715285206,0.24899697,0.27772740,9.54807663,0.07030746,0.04154531,0.01278317
1691759715287281,-0.02394202,0.06224924,9.83538055,0.06285060,0.02663161,0.01065264
1691759715289383,0.17238252,0.00478840,9.64863300,0.04687164,0.01065264,0.00426106
1691759715291246,-0.02394202,0.00478840,9.91678333,0.02024002,0.00106526,-0.00319579
1691759715293203,-0.01436521,-0.02873042,9.88805294,0.00426106,-0.00639159,-0.00426106
1691759715295231,0.24899697,0.12449849,9.68215179,-0.00426106,-0.00532632,0.00000000
1691759715297237,-0.06703765,0.04309563,10.03170490,0.00639159,-0.00213053,0.00000000
1691759715299202,0.11971009,0.08140286,9.80186176,0.01171791,0.01065264,0.00639159
1691759715301216,0.15801731,0.17238252,9.77791977,0.02450108,0.01278317,0.00639159
1691759715303234,-0.05746084,0.06703765,9.99339771,0.02663161,0.02130529,0.01171791
1691759715305280,0.17717093,0.09576806,9.77313137,0.02556635,0.02769688,-0.00426106
1691759715307381,-0.14844051,0.04788403,10.02691650,0.01384844,0.03408846,0.00532632
1691759715309183,0.20590134,0.09576806,9.81622696,0.01278317,0.03089267,0.00319579
1691759715311219,0.06703765,0.08140286,9.83538055,0.01597897,0.03195793,-0.00106526
1691759715313293,-0.06224924,0.06224924,10.10353088,0.03302320,0.02450108,-0.00532632
1691759715315208,0.16280572,0.06224924,9.93593693,0.02450108,0.02024002,-0.00745685
1691759715317210,-0.07661445,0.12449849,10.05085850,0.00106526,0.00319579,-0.00106526
1691759715319198,0.02394202,0.07661445,9.99339771,-0.01065264,0.00000000,0.00106526
1691759715321264,0.15322891,0.02394202,9.92157173,-0.00106526,-0.01597897,0.00639159
1691759715323238,0.04309563,0.11492168,10.12268448,-0.00639159,-0.02982740,0.00532632
1691759715325216,0.11013328,0.01436521,10.02212811,-0.00958738,-0.02237055,0.01171791
1691759715327202,-0.05267244,0.09097967,10.06043530,0.00426106,-0.01917476,0.00213053
1691759715329203,0.02873042,0.15322891,10.03649330,0.00532632,-0.01384844,-0.00852212
1691759715331279,0.10534488,0.06224924,10.08437729,-0.00532632,0.00000000,-0.00745685
1691759715333238,0.03830723,0.08140286,10.09395409,-0.00532632,0.02024002,-0.01065264
1691759715335200,0.05267244,0.07661445,10.01733971,0.01278317,0.01917476,-0.00852212
1691759715337229,-0.09097967,0.21068975,10.04607010,0.00852212,0.03195793,-0.00852212
1691759715339237,-0.03351882,0.14844051,10.03170490,-0.00639159,0.04154531,-0.00532632
1691759715341229,-0.05746084,-0.03351882,10.15620327,-0.01065264,0.04261058,-0.00106526
1691759715343240,-0.04309563,-0.01915361,10.07001209,-0.00319579,0.04580637,0.00000000
1691759715345204,-0.04788403,0.01915361,10.08916569,-0.01491370,0.04261058,0.00213053
1691759715347466,-0.06703765,0.10534488,10.21845245,-0.00532632,0.04580637,0.01384844
1691759715349225,-0.03830723,0.01436521,10.11789608,-0.00106526,0.05006743,0.00639159
1691759715351225,0.01436521,0.04309563,10.18014526,-0.00958738,0.04154531,0.00319579
1691759715353236,0.09097967,0.13407530,10.06522369,-0.02130529,0.01810949,0.00213053
1691759715355406,-0.00478840,-0.00957681,10.08437729,-0.03302320,0.00852212,0.00319579
1691759715357286,-0.05746084,0.07182605,10.24239445,-0.02343582,0.00426106,0.00319579
1691759715359200,0.09576806,0.08140286,10.07001209,-0.01704423,-0.00745685,0.00639159
1691759715361208,-0.03351882,0.08140286,10.17056847,-0.01278317,-0.00319579,0.00958738
1691759715363343,0.06703765,0.22984336,9.99818611,-0.01597897,0.02130529,-0.00426106
1691759715365226,0.07661445,0.11013328,9.90720654,-0.00426106,0.07137272,0.00852212
1691759715367268,-0.04309563,0.33518824,9.95987892,-0.00213053,0.12783173,-0.00532632
1691759715369189,0.01915361,0.10055647,9.71567059,0.00745685,0.15872440,-0.00532632
1691759715371230,-0.19632454,0.10055647,9.85453415,0.03089267,0.19068234,-0.02876214
1691759715373282,-0.20111294,0.08619126,9.84016895,0.05539375,0.19920444,-0.01065264
1691759715375229,-0.22984336,0.03830723,9.69651699,0.05645901,0.18216021,-0.01810949
1691759715377229,-0.29688102,0.22026655,9.87847614,0.04687164,0.15126754,0.01491370
1691759715379200,0.00957681,-0.04309563,9.74918938,0.05219796,0.12357067,-0.00426106
1691759715381244,0.09097967,0.16759412,9.74440098,0.04474111,0.07243798,0.01065264
1691759715383342,0.22026655,0.24899697,9.79707336,0.02024002,0.04687164,-0.01278317
1691759715385207,0.32561144,0.00478840,9.64384460,0.01065264,0.02663161,0.00000000
1691759715387333,0.22505496,0.29688102,9.72045898,0.00958738,-0.00213053,-0.01384844
1691759715389235,0.23942018,0.02394202,9.70130539,0.00639159,-0.01171791,0.00958738
1691759715391223,0.09097967,0.03830723,9.65342140,0.00852212,-0.01704423,-0.00426106
1691759715393203,0.12449849,0.20111294,9.68694019,0.00213053,-0.02450108,-0.00745685
1691759715395219,0.12928689,-0.16759412,9.70609379,-0.01278317,-0.02876214,-0.01810949
1691759715397284,0.08140286,0.10534488,9.76355457,-0.01917476,-0.02343582,0.00426106
1691759715399185,0.12928689,0.01436521,9.85932255,-0.01810949,-0.05752428,0.00319579
1691759715401234,0.02873042,0.04309563,9.83059216,-0.04367584,-0.05645901,0.00213053
1691759715403198,0.14365210,0.23463176,9.80665016,-0.05113269,-0.05219796,-0.00426106
1691759715405298,0.07661445,-0.12449849,9.91199493,-0.04687164,-0.06178534,-0.00532632
1691759715407241,0.10534488,0.10534488,9.84495735,-0.05858954,-0.06711166,-0.00106526
1691759715409189,0.03830723,0.01915361,9.96466732,-0.06072007,-0.06924219,-0.00319579
1691759715411201,-0.07182605,-0.10055647,10.01733971,-0.05326322,-0.05858954,-0.00745685
1691759715413201,0.13407530,0.18195933,9.87847614,-0.05006743,-0.05219796,-0.00639159
1691759715415308,-0.02394202,-0.09097967,10.05085850,-0.05645901,-0.04900216,-0.00958738
1691759715417200,0.08619126,0.20111294,9.88326454,-0.04048005,-0.03515373,-0.00426106
1691759715419189,0.02873042,0.16280572,9.89284134,-0.01491370,-0.01171791,0.00000000
1691759715421296,-0.15801731,0.14844051,9.96945572,-0.00106526,0.01171791,0.00106526
1691759715423272,0.07661445,0.32561144,9.74918938,-0.00213053,0.01810949,0.00639159
1691759715425215,-0.21068975,-0.10055647,9.94551373,-0.00958738,0.03621899,0.00958738
1691759715427294,-0.06224924,0.09576806,9.87847614,0.00213053,0.03728426,0.01917476
1691759715429207,-0.00957681,0.05267244,9.85453415,0.00639159,0.03302320,0.01278317
1691759715431245,-0.16280572,0.10534488,10.01733971,0.00319579,0.02876214,0.00852212
1691759715433223,0.21068975,0.32561144,9.78270817,0.00532632,0.01917476,-0.01810949
1691759715435196,0.02873042,-0.00957681,9.84974575,0.01597897,0.01491370,-0.02982740
1691759715437222,0.13407530,0.27293900,9.83538055,0.01065264,0.01384844,-0.02450108
1691759715439237,0.06703765,0.11971009,9.79228497,0.00532632,0.02556635,-0.02769688
1691759715441265,-0.15322891,0.09097967,9.87847614,0.01065264,0.03834952,-0.02343582
1691759715443218,0.07182605,0.19632454,9.77313137,0.00958738,0.05006743,-0.01171791
1691759715445226,-0.11492168,-0.11492168,9.84495735,0.01810949,0.05539375,0.00106526
1691759715447259,0.03351882,0.25378537,9.89284134,0.02982740,0.05752428,-0.00745685
1691759715449225,0.03351882,0.00957681,9.91199493,0.03089267,0.06178534,0.00000000
1691759715451208,-0.02394202,0.20590134,9.85453415,0.03195793,0.05645901,0.01278317
1691759715453195,0.20111294,0.30645782,9.84974575,0.03195793,0.05113269,0.01810949
1691759715455222,-0.00957681,-0.06224924,9.91678333,0.02343582,0.03941479,0.01597897
1691759715457237,0.10534488,0.28251579,9.83059216,0.01065264,0.02556635,0.01597897
1691759715459206,-0.01915361,-0.07182605,9.97903252,0.01065264,0.01810949,0.01917476
1691759715461203,0.02394202,-0.06703765,9.95509052,0.00106526,-0.00745685,0.00639159
1691759715463205,0.15322891,0.22505496,9.98860931,-0.00745685,-0.01065264,-0.00639159
1691759715465261,-0.00478840,-0.18195933,10.11310768,-0.01491370,-0.01384844,-0.00745685
1691759715467319,0.22984336,0.22984336,9.94551373,-0.02237055,-0.00852212,-0.00639159
1691759715469188,0.12449849,0.02394202,10.09395409,-0.03515373,-0.00745685,-0.01171791
1691759715471306,0.12449849,-0.03351882,9.96945572,-0.03302320,0.00532632,-0.00426106
1691759715473276,0.06224924,0.22026655,9.96466732,-0.02450108,0.00426106,0.00000000
1691759715475210,-0.18674773,-0.11013328,10.10831928,-0.01491370,0.01171791,-0.01597897
1691759715477233,0.10534488,0.23463176,9.85932255,-0.00213053,0.01278317,-0.02769688
1691759715479196,0.00000000,0.12449849,10.07001209,0.01491370,-0.01171791,-0.02130529
1691759715481279,0.13886370,0.07182605,9.96945572,0.01384844,-0.02130529,-0.02237055
1691759715483235,0.18195933,0.30166942,9.95987892,0.00000000,-0.02556635,-0.01384844
1691759715485269,-0.03830723,0.04309563,10.06522369,-0.00106526,-0.04048005,-0.01384844
1691759715487216,0.23463176,0.26336220,9.81622696,0.00639159,-0.04261058,-0.01917476
1691759715489230,-0.01915361,0.06224924,10.13226128,0.00852212,-0.04580637,-0.01384844
1691759715491291,0.08140286,0.00957681,10.07480049,0.01597897,-0.05645901,0.00000000
1691759715493198,0.13407530,0.22026655,10.06522369,0.01384844,-0.05539375,-0.00852212
1691759715495209,-0.10055647,0.08619126,10.25675964,0.00852212,-0.06711166,-0.01491370
1691759715497221,0.23942018,0.25378537,9.99818611,-0.00426106,-0.06924219,-0.01065264
1691759715499230,-0.06224924,-0.01436521,10.20887566,0.00213053,-0.05539375,0.00213053
1691759715501199,-0.06224924,0.05746084,10.11789608,0.00426106,-0.05219796,0.00000000
1691759715503211,0.03351882,0.19153613,10.00297451,0.00213053,-0.02343582,0.00319579
1691759715505182,-0.21068975,0.00000000,10.11789608,0.00426106,0.02237055,0.01384844
1691759715507428,0.01436521,0.19153613,9.86411095,0.02450108,0.06285060,0.02343582
1691759715509224,-0.20111294,-0.02394202,9.96945572,0.00852212,0.12676647,0.02024002
1691759715511213,-0.17717093,0.11013328,9.93114853,0.00639159,0.14913702,0.02024002
1691759715513208,-0.07661445,0.22984336,9.82580376,0.02237055,0.15446334,0.01917476
1691759715515255,-0.23463176,0.11971009,9.86411095,0.02769688,0.14168017,0.00532632
1691759715517250,0.08619126,0.26336220,9.78270817,0.01171791,0.12996227,0.01171791
1691759715519184,-0.07661445,0.02394202,9.82580376,0.01065264,0.10546118,0.00532632
1691759715521290,-0.01915361,-0.00957681,9.67736340,0.02343582,0.07669904,0.02130529
1691759715523277,-0.04309563,0.06224924,9.71088219,0.01171791,0.07030746,0.00319579
1691759715525335,-0.13886370,-0.03830723,9.72524738,0.01917476,0.08309063,0.02556635
1691759715527234,0.17238252,0.16280572,9.50976944,0.00958738,0.07882957,-0.00213053
1691759715529258,-0.02873042,-0.01436521,9.68215179,0.00213053,0.08841695,0.01171791
1691759715531307,0.15322891,0.03830723,9.46667385,-0.00532632,0.08522116,-0.00532632
1691759715533278,0.14844051,0.17238252,9.63426781,-0.00532632,0.07030746,0.00106526
1691759715535207,-0.00478840,0.08140286,9.69651699,-0.01278317,0.06391586,-0.01065264
1691759715537234,0.21547815,0.16759412,9.47625065,-0.00213053,0.03089267,-0.00532632
1691759715539223,-0.11971009,-0.03351882,9.85932255,0.00639159,-0.00426106,-0.00958738
1691759715541234,0.09097967,-0.03830723,9.68694019,0.00958738,-0.02556635,-0.01384844
1691759715543264,0.14844051,0.06224924,9.76834297,-0.00745685,-0.03728426,-0.02343582
1691759715545208,0.16280572,-0.00957681,9.84016895,-0.00958738,-0.05326322,-0.02450108
1691759715547240,0.35434186,0.10534488,9.60074902,0.00532632,-0.05858954,-0.02556635
1691759715549235,-0.02394202,0.11013328,9.86889935,0.01491370,-0.03408846,-0.01491370
1691759715551263,0.14844051,0.18674773,9.63426781,-0.00213053,-0.02876214,-0.01171791
1691759715553220,0.03351882,0.11492168,9.73482418,-0.00745685,-0.03834952,0.00532632
1691759715555200,-0.08619126,0.00478840,9.91199493,-0.01491370,-0.03195793,0.00213053
1691759715557277,0.15801731,0.01436521,9.70609379,-0.02237055,-0.02450108,0.00106526
1691759715559184,-0.14365210,0.07182605,9.98860931,-0.01491370,-0.02343582,0.00745685
1691759715561224,0.02394202,0.10055647,9.83059216,-0.00852212,-0.00958738,0.01384844
1691759715563236,0.03830723,0.18195933,9.79707336,-0.01384844,0.00106526,0.00745685
1691759715565267,-0.00957681,0.19153613,10.01733971,-0.01278317,-0.00106526,0.01065264
1691759715567224,0.16759412,0.05267244,9.78270817,-0.00745685,0.00106526,0.01597897
1691759715569265,-0.13886370,0.15801731,9.96466732,-0.01597897,0.00106526,0.01491370
1691759715571204,-0.00478840,0.06224924,9.95030212,-0.01704423,-0.00426106,0.01171791
1691759715573353,0.00000000,0.01436521,9.91678333,-0.01384844,-0.01065264,0.01384844
1691759715575251,-0.07661445,0.15322891,10.08916569,-0.01810949,-0.02450108,0.00745685
1691759715577228,0.15322891,-0.10534488,9.95030212,-0.02556635,-0.02237055,-0.00532632
1691759715579184,-0.00957681,0.17238252,10.02691650,-0.01597897,-0.03089267,0.00000000
1691759715581211,0.07661445,0.18674773,9.97903252,-0.01171791,-0.02556635,-0.00426106
1691759715583323,0.11013328,0.02873042,9.94551373,-0.00639159,-0.02769688,-0.00745685
1691759715585219,0.00000000,0.24420857,10.07480049,0.00426106,-0.03195793,-0.00745685
1691759715587206,0.04309563,-0.03830723,9.98382092,0.01278317,-0.03728426,0.00213053
1691759715589186,-0.06224924,0.12928689,10.05085850,0.00745685,-0.04261058,0.00958738
1691759715591248,0.02873042,0.12449849,10.09874249,-0.00426106,-0.04900216,0.02130529
1691759715593247,0.06224924,-0.00957681,10.06522369,-0.01278317,-0.05006743,0.02237055
1691759715595216,0.08619126,0.21547815,10.08437729,-0.02876214,-0.05645901,0.01704423
1691759715597242,0.11971009,0.05267244,10.07480049,-0.02556635,-0.06072007,0.02237055
1691759715599225,0.07182605,0.10534488,10.09874249,-0.04367584,-0.05965481,0.01704423
1691759715601240,0.07661445,0.05746084,10.15620327,-0.04793690,-0.05858954,0.01917476
1691759715603207,-0.03351882,-0.13407530,10.23281765,-0.05432849,-0.07030746,0.01810949
1691759715605304,0.01915361,0.15322891,10.20887566,-0.04154531,-0.08628642,0.01278317
1691759715607269,0.02394202,-0.02394202,10.26633644,-0.04793690,-0.09054748,0.00852212
1691759715609235,0.15322891,0.06703765,10.22324085,-0.04687164,-0.09161274,0.01597897
1691759715611214,0.11013328,0.10534488,10.18014526,-0.05006743,-0.08948221,0.00852212
1691759715613214,-0.04309563,-0.03830723,10.21366405,-0.04367584,-0.07776430,0.00213053
1691759715615292,0.11492168,0.22026655,10.01733971,-0.04900216,-0.07030746,-0.01171791
1691759715617155,-0.03830723,-0.07661445,10.15141487,-0.06072007,-0.06178534,-0.01065264
1691759715619225,0.02873042,0.02394202,10.08916569,-0.05645901,-0.04261058,0.00000000
1691759715621197,0.06224924,0.06703765,10.00297451,-0.03834952,-0.03834952,0.00745685
1691759715623279,-0.11492168,0.06224924,10.10353088,-0.02237055,-0.04048005,0.00426106
1691759715625282,0.11013328,0.35434186,9.86889935,-0.01384844,-0.04367584,0.00745685
1691759715627359,-0.03830723,-0.05746084,9.94551373,-0.01704423,-0.03515373,0.00213053
1691759715629183,0.01436521,0.10055647,9.90720654,-0.01704423,-0.02982740,0.00958738
1691759715631204,0.06703765,0.03351882,9.78270817,-0.02769688,-0.03728426,0.00852212
1691759715633268,-0.17238252,-0.00957681,9.95987892,-0.02130529,-0.04367584,0.02663161
1691759715635230,0.08619126,0.24420857,9.82580376,-0.01065264,-0.04900216,0.02024002
1691759715637248,0.03830723,-0.06703765,9.83538055,-0.02237055,-0.05539375,0.02130529
1691759715639203,0.12449849,0.17238252,9.87847614,-0.04154531,-0.06391586,0.01597897
1691759715641261,0.16280572,0.00478840,9.79228497,-0.03728426,-0.07243798,0.02663161
1691759715643238,-0.09576806,0.00000000,9.89284134,-0.02663161,-0.08309063,0.01917476
1691759715645325,0.10534488,0.23942018,9.88805294,-0.03408846,-0.09374327,0.01597897
1691759715647232,0.07661445,-0.09097967,9.92636013,-0.03408846,-0.11930962,0.02663161
1691759715649341,0.09576806,0.22026655,9.95987892,-0.02663161,-0.12250541,0.02024002
1691759715651216,0.14365210,0.05267244,9.94072533,-0.02237055,-0.11611383,0.00852212
1691759715653206,-0.01436521,0.04788403,9.96466732,-0.02343582,-0.12783173,0.00958738
1691759715655216,0.05267244,0.22505496,9.96466732,-0.03195793,-0.13102752,0.01917476
1691759715657283,-0.05267244,-0.16280572,9.91678333,-0.04687164,-0.11504856,0.00532632
1691759715659222,0.01915361,0.18195933,9.84016895,-0.04900216,-0.10439591,-0.00745685
1691759715661227,0.03830723,0.06703765,9.92636013,-0.04580637,-0.10120012,0.01065264
1691759715663204,-0.01915361,0.03830723,9.88326454,-0.04154531,-0.08415589,0.01384844
1691759715665216,0.08140286,0.32082301,9.89762974,-0.03621899,-0.07669904,0.01491370
1691759715667265,-0.04788403,-0.07661445,9.99818611,-0.04154531,-0.07563377,0.01704423
1691759715669188,0.03830723,0.22984336,9.87847614,-0.04154531,-0.07030746,0.03621899
1691759715671204,-0.02394202,0.10055647,9.98860931,-0.03621899,-0.06924219,0.01917476
1691759715673231,-0.01915361,-0.02394202,9.90241814,-0.02663161,-0.07350325,0.01704423
1691759715675272,0.06703765,0.25378537,9.86889935,-0.02876214,-0.07776430,0.00426106
1691759715677295,-0.12449849,-0.11971009,10.04607010,-0.02663161,-0.08948221,0.01171791
1691759715679180,0.16759412,0.14844051,9.81143856,-0.02876214,-0.09267800,-0.00213053
1691759715681272,0.05267244,0.11492168,9.95987892,-0.04154531,-0.09906960,-0.01171791
1691759715683265,0.06703765,-0.05267244,9.93114853,-0.04580637,-0.10759171,-0.00745685
1691759715685265,0.16759412,0.17717093,9.85453415,-0.03941479,-0.11078750,0.01171791
1691759715687201,-0.16280572,-0.07182605,10.02691650,-0.03302320,-0.11185277,0.01278317
1691759715689200,0.12449849,0.19632454,9.75397778,-0.04048005,-0.11611383,0.00958738
1691759715691256,0.00957681,0.12928689,9.97903252,-0.04261058,-0.11398330,0.01810949
1691759715693202,0.06224924,-0.06224924,9.94072533,-0.04900216,-0.10652644,0.02237055
1691759715695214,0.24420857,0.18195933,9.85453415,-0.05113269,-0.10226539,0.02450108
1691759715697192,-0.14365210,0.02873042,10.17056847,-0.05113269,-0.08735169,0.03089267
1691759715699230,0.10055647,0.24420857,9.87368774,-0.03941479,-0.08841695,0.02024002
1691759715701225,-0.02873042,0.10534488,9.98860931,-0.03408846,-0.09374327,0.01491370
1691759715703217,-0.03351882,-0.02394202,9.98860931,-0.03302320,-0.10226539,0.01171791
1691759715705204,0.19153613,0.15801731,9.83538055,-0.03408846,-0.10546118,-0.00106526
1691759715707281,-0.15322891,0.02394202,10.11310768,-0.03408846,-0.10652644,-0.00426106
1691759715709225,0.14844051,0.28251579,9.85453415,-0.02663161,-0.09800433,0.00213053
1691759715711213,0.06224924,0.18195933,9.91678333,-0.02024002,-0.08841695,0.00745685
1691759715713204,0.00478840,0.09576806,9.95987892,-0.02130529,-0.06604639,0.00639159
1691759715715165,0.18674773,0.20111294,9.75876617,-0.02024002,-0.04580637,0.01491370
1691759715717273,-0.21068975,0.00478840,9.91199493,-0.01278317,-0.02343582,0.00958738
1691759715719213,-0.00478840,0.26815060,9.74440098,-0.00639159,-0.02343582,0.00958738
1691759715721211,-0.05267244,0.15322891,9.78749657,-0.00426106,-0.01491370,0.00106526
1691759715723196,-0.10055647,0.03351882,9.83059216,-0.01917476,-0.00852212,-0.00426106
1691759715725281,0.08619126,0.10534488,9.69651699,-0.01917476,-0.00532632,-0.00532632
1691759715727233,-0.21068975,-0.05746084,9.83538055,-0.01384844,0.00319579,-0.00213053
1691759715729185,-0.02394202,0.20111294,9.69172859,-0.00319579,0.02343582,0.00426106
1691759715731266,-0.03351882,0.17238252,9.70130539,-0.00532632,0.06178534,0.02130529
1691759715733280,-0.00957681,0.03351882,9.60553741,-0.01491370,0.10226539,0.02450108
1691759715735271,0.09097967,0.22984336,9.50976944,-0.01597897,0.12996227,0.03089267
1691759715737196,-0.27772740,0.08140286,9.61511421,-0.01917476,0.15659387,0.02663161
1691759715739208,-0.07182605,0.18195933,9.48582745,-0.00319579,0.17044231,0.01491370
1691759715741301,0.08619126,0.25378537,9.52892303,0.00426106,0.16298546,0.01278317
1691759715743261,-0.26336220,-0.03351882,9.53849983,0.01917476,0.13422331,0.00639159
1691759715745201,0.13886370,0.26815060,9.41878986,0.01384844,0.12570120,0.00532632
1691759715747230,-0.00478840,0.28730419,9.63905621,0.01278317,0.09161274,-0.01384844
1691759715749220,0.00478840,0.02394202,9.56723022,0.01704423,0.06391586,0.00852212
1691759715751252,0.25378537,0.17717093,9.47146225,0.00319579,0.04261058,-0.01278317
1691759715753253,-0.03351882,-0.13407530,9.79228497,0.01491370,0.01384844,-0.01065264
1691759715755192,0.26815060,0.00000000,9.51934624,0.01810949,0.00000000,-0.00532632
1691759715757260,-0.03351882,-0.03351882,9.74440098,0.02450108,0.02982740,0.01278317
1691759715759276,0.09576806,0.06703765,9.63426781,0.02876214,0.04154531,0.00639159
1691759715761264,0.33518824,0.31124622,9.44273186,0.04687164,0.06817693,0.01704423
1691759715763200,-0.08140286,0.05267244,9.77791977,0.04261058,0.10759171,0.01491370
1691759715765286,0.11971009,0.05746084,9.47146225,0.05645901,0.10439591,-0.01278317
1691759715767287,-0.14844051,0.05746084,9.81143856,0.07989483,0.11930962,0.00319579
1691759715769232,-0.28251579,0.05267244,9.72524738,0.07669904,0.10865697,0.00319579
1691759715771234,0.11971009,0.20111294,9.50019264,0.07563377,0.08841695,-0.00213053
1691759715773195,-0.11013328,-0.03351882,9.82580376,0.06498113,0.06711166,0.00426106
1691759715775284,0.17717093,0.16280572,9.42836666,0.05539375,0.06604639,0.01597897
1691759715777271,0.16759412,0.21547815,9.58638382,0.05539375,0.03728426,0.00745685
1691759715779215,-0.00957681,0.07661445,9.76355457,0.05965481,0.04367584,0.00852212
1691759715781201,0.29209262,0.22505496,9.43315506,0.06072007,0.04261058,0.01597897
1691759715783301,-0.00957681,0.05746084,9.79707336,0.06711166,0.02769688,-0.00426106
1691759715785237,0.30166942,0.18195933,9.54328823,0.06817693,0.02556635,-0.00319579
1691759715787266,0.14365210,0.11492168,9.62947941,0.06072007,0.01384844,-0.00319579
1691759715789185,-0.03351882,0.06224924,9.89762974,0.05965481,-0.00213053,0.00106526
1691759715791333,0.18195933,0.04788403,9.74440098,0.04687164,-0.02769688,0.00852212
1691759715793263,0.01915361,0.00000000,9.99818611,0.03302320,-0.04687164,0.01171791
1691759715795157,0.06703765,0.03351882,9.88805294,0.02237055,-0.04154531,0.00426106
1691759715797210,0.02394202,0.01915361,10.01255131,0.02024002,-0.04367584,0.01171791
1691759715799182,0.06224924,0.06224924,10.01255131,0.02663161,-0.04474111,0.02130529
1691759715801254,0.12928689,0.06224924,9.81143856,0.04580637,-0.02876214,0.00532632
1691759715803257,-0.00478840,0.05746084,9.95987892,0.04048005,-0.00745685,0.00000000
1691759715805206,0.04788403,0.14844051,9.93593693,0.02237055,-0.01491370,-0.00319579
1691759715807288,0.12449849,0.09097967,9.86411095,0.00958738,-0.01491370,0.00106526
1691759715809169,0.01915361,0.07661445,9.96466732,0.03089267,-0.00745685,-0.00213053
1691759715811271,0.06224924,0.04309563,9.90720654,0.02982740,-0.00213053,0.00000000
1691759715813174,-0.02394202,0.09097967,9.94551373,0.01065264,-0.01065264,0.00319579
1691759715815223,0.13407530,0.01915361,9.94072533,-0.01491370,-0.02237055,-0.00745685
1691759715817225,0.04788403,-0.04788403,9.96466732,-0.00745685,-0.02876214,-0.01171791
1691759715819215,0.04309563,0.14365210,9.98860931,-0.00745685,-0.03621899,-0.01278317
1691759715821198,0.12449849,0.08619126,10.03649330,-0.01384844,-0.05006743,-0.00106526
1691759715823233,0.09576806,0.01915361,10.03170490,-0.01384844,-0.05539375,-0.00319579
1691759715825281,0.07182605,0.12449849,9.99339771,-0.00745685,-0.04687164,-0.00639159
1691759715827313,0.00478840,0.09097967,10.12747288,0.00319579,-0.04261058,-0.00852212
1691759715829232,0.10534488,0.16280572,10.05564690,0.00106526,-0.04687164,-0.00958738
1691759715831151,0.02873042,0.07661445,10.07958889,0.00639159,-0.03728426,-0.00426106
1691759715833291,0.00957681,0.09097967,10.08437729,0.02237055,-0.01917476,-0.01171791
1691759715835322,0.15322891,0.17238252,10.07480049,0.01917476,-0.01810949,-0.00213053
1691759715837234,0.02394202,0.10055647,10.21845245,0.00319579,-0.01278317,0.00000000
1691759715839213,0.04788403,0.10534488,10.09874249,-0.00532632,-0.01384844,0.00319579
1691759715841234,-0.02394202,-0.03830723,10.08437729,-0.00852212,-0.00426106,0.00319579
1691759715843296,-0.10534488,0.07661445,10.21366405,-0.01384844,0.00106526,0.00106526
1691759715845242,0.06703765,0.03830723,10.03649330,-0.00745685,0.00000000,0.00426106
1691759715847230,-0.09097967,-0.00957681,10.14662647,0.01065264,0.00852212,0.00106526
1691759715849244,0.03830723,0.04788403,9.89284134,0.01065264,0.01917476,0.00000000
1691759715851304,0.04788403,0.06224924,9.93593693,0.01810949,0.01491370,0.00106526
1691759715853288,-0.03351882,0.27293900,10.10353088,0.01065264,0.00852212,0.00213053
1691759715855254,0.16280572,0.08140286,9.92157173,0.00745685,0.00000000,-0.00426106
1691759715857279,-0.04788403,0.07182605,9.98382092,-0.00106526,-0.00958738,-0.00319579
1691759715859244,-0.02394202,0.13886370,9.99818611,0.01278317,-0.01704423,-0.00426106
1691759715861223,0.05267244,-0.06224924,9.95987892,0.02130529,-0.02663161,-0.00852212
1691759715863228,-0.01436521,0.28251579,10.12747288,0.02769688,-0.02130529,-0.00958738
1691759715865209,0.12928689,0.06703765,9.95030212,0.03302320,-0.01810949,0.01278317
1691759715867252,0.00000000,0.10055647,9.95030212,0.04261058,-0.00958738,-0.00319579
1691759715869200,0.00957681,0.22984336,9.95030212,0.04793690,-0.00213053,0.00958738
1691759715871250,0.06224924,-0.05267244,9.86889935,0.04261058,0.01597897,0.00426106
1691759715873212,-0.00478840,0.21068975,9.99818611,0.05006743,0.01810949,0.00106526
1691759715875239,0.05746084,-0.11492168,9.89284134,0.03621899,0.02876214,-0.00745685
1691759715877261,-0.01915361,0.29688102,9.99818611,0.02663161,0.04048005,0.01065264
1691759715879203,-0.00957681,-0.10534488,9.99339771,0.02130529,0.04687164,-0.00213053
1691759715881209,-0.10055647,-0.02873042,9.93114853,0.01917476,0.05432849,0.00106526
1691759715883230,-0.05746084,0.16759412,9.95509052,0.01065264,0.05858954,-0.00958738
1691759715885269,-0.01436521,-0.22026655,9.99818611,0.00639159,0.04900216,-0.00532632
1691759715887223,0.03351882,0.16280572,9.96945572,0.00106526,0.03515373,-0.01597897
1691759715889195,0.02394202,0.06224924,9.95030212,0.01171791,0.02876214,-0.01278317
1691759715891261,0.05746084,0.16280572,9.90720654,0.02982740,0.01491370,-0.01171791
1691759715893263,0.18674773,0.31124622,9.88326454,0.04580637,0.01171791,0.00106526
1691759715895230,0.06224924,-0.08140286,9.94551373,0.04154531,0.01491370,0.00106526
1691759715897249,0.08619126,0.17717093,9.83059216,0.03408846,0.02130529,-0.00426106
1691759715899180,-0.01436521,-0.00957681,9.85453415,0.02556635,0.02769688,-0.00213053
1691759715901289,-0.08619126,-0.02394202,9.85453415,0.02663161,0.03302320,-0.00639159
1691759715903249,0.13407530,0.17238252,9.73003578,0.03089267,0.03515373,-0.00532632
1691759715905219,0.06703765,-0.10055647,9.93593693,0.01810949,0.04154531,-0.01384844
1691759715907215,0.20590134,0.15322891,9.81143856,0.00958738,0.04154531,0.00426106
1691759715909223,0.08619126,0.08140286,9.78749657,0.00106526,0.02343582,0.00106526
1691759715911361,-0.06224924,0.01915361,9.94551373,0.00532632,0.00852212,-0.00319579
1691759715913234,0.14844051,0.16280572,9.82580376,0.00852212,0.00000000,-0.00852212
1691759715915194,0.00478840,-0.19632454,9.96466732,0.00000000,-0.01171791,-0.01491370
1691759715917235,0.13886370,0.07661445,9.86889935,-0.01278317,-0.03834952,-0.01597897
1691759715919214,0.13407530,-0.01436521,9.93593693,-0.00319579,-0.06285060,-0.00958738
1691759715921221,0.05267244,0.07661445,10.10831928,0.00319579,-0.07989483,-0.01171791
1691759715923214,0.29688102,0.23942018,9.96466732,-0.01491370,-0.08841695,0.00213053
1691759715925224,0.01436521,-0.14844051,10.02691650,-0.02237055,-0.09587380,-0.00532632
1691759715927247,0.11971009,0.13407530,9.99339771,-0.02130529,-0.08628642,-0.00319579
1691759715929146,0.13886370,-0.07182605,10.02691650,-0.00852212,-0.07669904,0.00213053
1691759715931253,-0.01436521,0.03351882,10.13226128,0.00106526,-0.05432849,0.01065264
1691759715933218,0.14365210,0.18674773,9.97903252,-0.00426106,-0.04580637,0.01704423
1691759715935291,-0.04788403,-0.09097967,9.99339771,-0.01917476,-0.01491370,-0.00213053
1691759715937238,0.06224924,0.24420857,9.95030212,-0.02237055,-0.01384844,-0.00426106
1691759715939186,0.02394202,0.02394202,9.93114853,-0.03089267,0.00426106,-0.02769688
1691759715941231,-0.11013328,0.11013328,9.92157173,-0.02343582,0.00639159,-0.01704423
1691759715943298,0.01915361,0.10534488,9.84016895,-0.01065264,0.00426106,-0.01704423
1691759715945206,-0.15322891,-0.12928689,9.81143856,-0.01597897,0.00319579,0.00639159
1691759715947253,0.00478840,0.20590134,9.78749657,-0.02982740,0.01704423,0.00958738
1691759715949215,0.01436521,-0.09097967,9.87368774,-0.00639159,0.01491370,0.02130529
1691759715951448,-0.10055647,-0.08619126,9.78270817,0.00426106,0.00852212,0.01384844
1691759715953243,0.15801731,0.30166942,9.77791977,-0.01065264,-0.00852212,0.01384844
1691759715955206,-0.02394202,-0.09576806,9.88805294,-0.00426106,-0.01491370,0.00852212
1691759715957206,0.04788403,-0.03351882,9.82580376,0.00532632,-0.03195793,0.01384844
1691759715959215,0.16280572,0.21068975,9.85932255,-0.01171791,-0.03621899,0.00745685
1691759715961258,0.02394202,-0.04788403,9.92157173,-0.01917476,-0.05432849,-0.00106526
1691759715963226,0.10055647,0.19632454,9.94551373,-0.00426106,-0.05858954,-0.00532632
1691759715965212,0.02394202,0.00000000,10.04128170,0.00000000,-0.05113269,0.00000000
1691759715967208,0.09576806,-0.03351882,9.93114853,-0.00958738,-0.05219796,-0.01597897
1691759715969240,0.06703765,0.22026655,9.96945572,-0.02343582,-0.05539375,-0.00213053
1691759715971218,-0.13407530,-0.11971009,10.07958889,-0.02556635,-0.04687164,-0.00426106
1691759715973206,0.16280572,0.16759412,9.87847614,-0.02556635,-0.04154531,-0.00106526
1691759715975246,0.01436521,0.05746084,10.16099167,-0.03515373,-0.03941479,0.00532632
1691759715977273,0.13407530,0.05267244,9.97424412,-0.03728426,-0.03515373,0.01384844
1691759715979206,0.07661445,0.19153613,9.93593693,-0.02876214,-0.04154531,0.00319579
1691759715981202,-0.17717093,-0.02873042,10.09874249,-0.04580637,-0.03834952,0.00852212
1691759715983222,0.11492168,0.17717093,9.87847614,-0.04048005,-0.02450108,0.01384844
1691759715985326,-0.13886370,0.03351882,10.10831928,-0.02343582,0.00852212,0.01704423
1691759715987274,0.15801731,0.31124622,9.71088219,0.01491370,0.04367584,0.00106526
1691759715989188,0.11971009,0.32082301,9.82101536,0.01065264,0.06711166,0.01278317
1691759715991267,-0.17238252,-0.05267244,9.92636013,0.01491370,0.08841695,0.00958738
1691759715993238,0.13407530,0.31603462,9.76355457,0.01491370,0.09587380,0.01491370
1691759715995266,-0.12449849,0.16280572,9.94072533,0.03302320,0.09480853,0.00319579
1691759715997224,-0.11013328,0.04788403,9.88805294,0.02876214,0.07456851,0.02556635
1691759715999191,-0.04309563,0.14365210,9.79707336,0.01917476,0.04900216,0.01597897
1691759716001244,-0.29688102,-0.06703765,9.95509052,0.00532632,0.03728426,0.00745685
1691759716003245,0.12928689,0.07182605,9.68694019,0.00106526,0.03195793,-0.00532632
1691759716005238,0.04309563,0.04788403,9.80186176,0.00213053,0.03302320,0.00000000
1691759716007202,0.20590134,0.06703765,9.71088219,0.00213053,0.05752428,-0.01278317
1691759716009223,0.23463176,0.22026655,9.54807663,-0.00745685,0.07989483,-0.01810949
1691759716011281,-0.08619126,0.10055647,9.69172859,-0.00958738,0.09054748,-0.02876214
1691759716013206,0.09576806,0.14365210,9.61032581,-0.00852212,0.09161274,-0.00745685
1691759716015229,-0.19153613,0.00000000,9.73961258,-0.01278317,0.09161274,-0.00852212
1691759716017241,-0.07661445,-0.05267244,9.66299820,-0.00852212,0.06711166,-0.01384844
1691759716019252,0.04788403,0.03351882,9.68215179,0.00426106,0.04900216,-0.01278317
1691759716021226,-0.06703765,-0.00957681,9.76834297,-0.00532632,0.04048005,0.00532632
1691759716023216,0.21547815,0.10534488,9.67257500,-0.01171791,0.02343582,-0.00745685
1691759716025231,0.07182605,0.11971009,9.86411095,-0.01597897,-0.01278317,0.01278317
1691759716027385,0.18674773,0.15801731,9.77313137,-0.01917476,-0.02769688,0.00000000
1691759716029190,0.02873042,0.02873042,10.00297451,-0.02343582,-0.03728426,0.00639159
1691759716031221,0.08619126,-0.00478840,9.94072533,-0.02556635,-0.04154531,0.00319579
1691759716033221,0.12928689,0.03351882,9.84974575,-0.02982740,-0.04900216,0.01065264
1691759716035302,-0.12449849,-0.04788403,10.10353088,-0.02130529,-0.02663161,-0.00106526
1691759716037258,0.05746084,0.10534488,9.88326454,0.00319579,0.00106526,-0.00213053
1691759716039201,0.09576806,0.22984336,9.92157173,-0.00213053,0.06285060,0.01065264
1691759716041257,0.07182605,0.21068975,9.90241814,-0.00532632,0.10759171,-0.00958738
1691759716043206,0.12449849,0.18674773,9.73003578,0.00213053,0.14168017,-0.00213053
1691759716045289,-0.19153613,0.01915361,9.96466732,0.00532632,0.16937704,0.00106526
1691759716047227,-0.13886370,0.01436521,9.67257500,0.02343582,0.16511598,-0.00745685
1691759716049178,-0.16759412,0.09576806,9.70130539,0.03302320,0.14061491,-0.00639159
1691759716051231,0.02873042,0.09576806,9.57680702,0.01278317,0.11078750,0.00319579
1691759716053407,0.11013328,0.08140286,9.48582745,-0.00106526,0.09054748,0.01384844
1691759716055222,0.10055647,0.31124622,9.35654068,0.00426106,0.05326322,0.00213053
1691759716057177,0.02394202,0.20590134,9.19373417,-0.00319579,0.05432849,0.01384844
1691759716059185,-0.00478840,0.39743748,9.50019264,-0.00213053,0.04793690,-0.00426106
1691759716061298,-0.03830723,0.23942018,9.40442467,0.00532632,0.05539375,0.01704423
1691759716063278,0.02394202,0.34955344,9.35175228,0.00852212,0.07243798,0.00106526
1691759716065208,-0.04788403,0.34476504,9.62469101,0.00319579,0.07030746,0.00426106
1691759716067287,0.27293900,0.19153613,9.48582745,0.00958738,0.04580637,0.00426106
1691759716069249,-0.10055647,0.18195933,9.79228497,0.00213053,0.04154531,0.01597897
1691759716071360,0.03830723,0.04309563,9.73003578,-0.00852212,0.02556635,-0.00213053
1691759716073206,0.09097967,0.17238252,9.76834297,-0.02024002,-0.00426106,-0.00639159
1691759716075237,-0.09576806,0.13886370,9.89762974,-0.02343582,-0.00852212,-0.00639159
1691759716077274,0.16280572,0.05746084,9.75876617,-0.02237055,0.00852212,-0.01065264
1691759716079216,0.11492168,0.13886370,9.80665016,-0.01704423,0.02130529,-0.00319579
1691759716081260,0.18674773,0.25857377,9.81622696,-0.00958738,0.04793690,-0.00426106
1691759716083204,0.10055647,0.05267244,9.81143856,-0.00852212,0.05432849,0.00532632
1691759716085248,0.00957681,0.34476504,9.91199493,-0.00532632,0.07669904,-0.01597897
1691759716087300,0.05746084,-0.02394202,9.87847614,0.00319579,0.07456851,-0.00958738
1691759716089227,-0.13886370,0.09097967,9.88326454,0.00000000,0.06604639,-0.01491370
1691759716091239,-0.01436521,0.14844051,9.88326454,-0.00639159,0.04687164,-0.02024002
1691759716093138,-0.04788403,-0.15322891,9.95987892,-0.00532632,0.03728426,-0.02556635
1691759716095266,0.06703765,0.17238252,9.92636013,-0.01278317,0.02024002,-0.01704423
1691759716097293,0.10534488,0.05746084,9.94551373,-0.01491370,0.02130529,-0.02237055
1691759716099180,0.07182605,0.09097967,9.96466732,-0.02343582,0.03089267,-0.01810949
1691759716101231,0.18674773,0.21068975,9.85453415,-0.03834952,0.05965481,-0.01597897
1691759716103243,-0.01915361,-0.13886370,10.01255131,-0.04154531,0.07776430,-0.01384844
1691759716105250,-0.08619126,0.07661445,9.95509052,-0.03834952,0.07563377,-0.02130529
1691759716107207,-0.17238252,-0.05267244,9.95987892,-0.04154531,0.06817693,-0.02130529
1691759716109213,-0.15801731,-0.03830723,10.07001209,-0.05326322,0.07776430,-0.01171791
1691759716111291,0.15322891,0.18674773,9.85453415,-0.03728426,0.07989483,0.00000000
1691759716113219,-0.17238252,0.03351882,9.98860931,-0.03302320,0.08309063,-0.00106526
1691759716115198,0.08140286,0.31603462,9.94551373,-0.02450108,0.09374327,-0.00745685
1691759716117230,0.00957681,0.11971009,9.89284134,-0.00213053,0.09693906,0.00213053
1691759716119217,-0.10534488,0.08140286,9.97903252,0.02130529,0.08735169,0.00745685
1691759716121255,0.12928689,0.15322891,9.81622696,0.01810949,0.06604639,0.00532632
1691759716123210,-0.07182605,-0.11492168,10.01733971,0.01278317,0.04900216,0.01278317
1691759716125234,0.07182605,0.17238252,9.95987892,0.01810949,0.02982740,0.02130529
1691759716127238,0.10534488,0.07661445,9.88326454,0.01704423,0.01065264,0.00532632
1691759716129240,0.10055647,0.22505496,9.97903252,0.01704423,-0.00745685,-0.00532632
1691759716131245,0.08140286,-0.00478840,9.89284134,0.00639159,0.01491370,0.00532632
1691759716133201,0.02394202,-0.07661445,9.91678333,-0.00532632,0.02876214,0.00532632
1691759716135259,0.01915361,0.25378537,9.85932255,-0.00852212,0.04261058,-0.01065264
1691759716137275,-0.10055647,0.01915361,9.82101536,-0.00745685,0.05219796,-0.00852212
1691759716139220,-0.11971009,0.15322891,9.91199493,0.00852212,0.05645901,-0.00106526
1691759716141206,0.19153613,0.12449849,9.80665016,0.01704423,0.04261058,-0.00852212
1691759716143245,0.00957681,0.03830723,9.77313137,0.02769688,0.02450108,0.00213053
1691759716145238,0.12449849,0.37349546,9.77791977,0.01810949,0.00639159,0.00852212
1691759716147256,0.10055647,0.07182605,9.76355457,0.01917476,-0.00958738,0.00639159
1691759716149187,0.03830723,0.19153613,9.73003578,0.01704423,-0.02237055,-0.00106526
1691759716151234,0.08619126,0.09576806,9.75876617,0.00745685,-0.03621899,-0.00319579
1691759716153284,-0.03830723,-0.12928689,9.75397778,-0.00319579,-0.05219796,-0.01065264
1691759716155215,0.11492168,0.16759412,9.72524738,-0.00958738,-0.05006743,-0.00532632
1691759716157257,0.08140286,-0.13407530,9.83059216,-0.02450108,-0.04474111,0.00106526
1691759716159206,0.11971009,0.09576806,9.75397778,-0.04687164,-0.04580637,0.00532632
1691759716161269,0.14365210,0.22505496,9.84974575,-0.05113269,-0.04154531,0.00852212
1691759716163202,0.00957681,-0.02873042,9.83538055,-0.05326322,-0.02982740,0.00426106
1691759716165265,0.15322891,0.31124622,9.74440098,-0.04474111,-0.02982740,-0.02024002
1691759716167206,-0.04788403,-0.05267244,10.00297451,-0.03728426,-0.04261058,-0.01384844
1691759716169213,-0.03830723,0.02873042,9.84016895,-0.01917476,-0.04367584,-0.01065264
1691759716171260,-0.05267244,0.16759412,9.94072533,-0.00852212,-0.04474111,-0.01491370
1691759716173167,-0.08619126,-0.07182605,10.01733971,-0.01065264,-0.05326322,-0.01171791
1691759716175203,-0.01915361,0.17717093,9.95509052,-0.03302320,-0.06391586,0.00426106
1691759716177250,0.00000000,-0.02873042,10.09395409,-0.03302320,-0.06178534,-0.00745685
1691759716179256,0.11971009,0.06224924,9.94072533,-0.02982740,-0.05326322,0.00213053
1691759716181236,0.07661445,0.22026655,9.98382092,-0.04048005,-0.04687164,0.01171791
1691759716183232,-0.07661445,-0.03351882,10.07958889,-0.05219796,-0.03834952,0.01491370
1691759716185241,0.13407530,0.13886370,9.85932255,-0.02769688,-0.03089267,0.00426106
1691759716187267,-0.13407530,-0.03351882,10.14662647,-0.01278317,-0.03089267,0.00852212
1691759716189194,0.05267244,0.10534488,10.00776291,-0.00532632,-0.03941479,0.01597897
1691759716191205,0.08619126,0.24899697,9.98860931,0.00426106,-0.04900216,0.01810949
1691759716193213,-0.06703765,0.10055647,10.13704967,0.01384844,-0.04793690,0.00319579
1691759716195214,0.22026655,0.28251579,9.92636013,0.00958738,-0.04154531,-0.01065264
1691759716197234,-0.10534488,0.07661445,10.08437729,0.01491370,-0.03834952,0.00319579
1691759716199192,-0.08619126,0.14844051,9.95030212,0.02450108,-0.00532632,0.01597897
1691759716201207,-0.10055647,0.18674773,9.89284134,0.03941479,0.03089267,0.01704423
1691759716203245,-0.23463176,-0.00957681,9.97424412,0.04793690,0.06498113,0.01917476
1691759716205251,0.08619126,0.09576806,9.79228497,0.05539375,0.05965481,0.03089267
1691759716207204,-0.14844051,-0.00478840,9.92636013,0.03941479,0.06498113,0.01491370
1691759716209204,0.01915361,0.18195933,9.87368774,0.03302320,0.05752428,0.02130529
1691759716211348,0.08140286,0.22505496,9.84016895,0.02982740,0.02450108,0.01704423
1691759716213268,-0.01915361,0.10534488,9.83538055,0.01917476,-0.00319579,0.03089267
1691759716215218,0.17238252,0.14844051,9.75876617,-0.00639159,-0.01704423,0.00426106
1691759716217202,-0.03351882,-0.03830723,9.88805294,-0.00639159,-0.05539375,0.00745685
1691759716219196,0.15322891,-0.01915361,9.76355457,-0.01384844,-0.08628642,0.00639159
1691759716221233,0.14365210,-0.08140286,9.87368774,-0.01917476,-0.10652644,-0.01810949
1691759716223248,0.18195933,-0.04309563,9.89762974,-0.02876214,-0.13315806,0.00213053
1691759716225208,0.25378537,0.12449849,9.81622696,-0.01810949,-0.15126754,0.00000000
1691759716227237,0.12928689,0.09576806,9.87368774,-0.02876214,-0.14381070,0.00426106
1691759716229234,0.29209262,0.10534488,9.75876617,-0.02450108,-0.14913702,0.00000000
1691759716231208,0.07661445,-0.02873042,9.96466732,-0.01384844,-0.15126754,0.02556635
1691759716233208,0.01915361,0.04309563,9.86411095,-0.00745685,-0.15446334,-0.00958738
1691759716235256,0.06224924,0.06703765,9.90241814,-0.00532632,-0.16724652,-0.00639159
1691759716237262,-0.01436521,0.08619126,10.04607010,-0.01278317,-0.15872440,-0.00426106
1691759716239189,0.13886370,0.05746084,9.84495735,-0.01704423,-0.15446334,-0.00426106
1691759716241206,0.01436521,0.03351882,10.02691650,-0.02663161,-0.15446334,-0.00213053
1691759716243225,0.13407530,0.16759412,9.96466732,-0.02130529,-0.13741912,0.00958738
1691759716245286,0.06224924,0.08140286,9.98382092,-0.02663161,-0.11717909,0.00639159
1691759716247238,-0.07661445,0.13407530,10.14662647,-0.02556635,-0.12037488,0.00639159
1691759716249194,-0.02873042,-0.01915361,10.01733971,-0.02982740,-0.11717909,0.00639159
1691759716251219,-0.21547815,0.00957681,10.21845245,-0.02769688,-0.09800433,0.00426106
1691759716253444,0.00957681,0.02873042,10.21845245,-0.02024002,-0.09906960,-0.00426106
1691759716255270,-0.18195933,0.15322891,10.26633644,-0.01278317,-0.08522116,0.00426106
1691759716257431,-0.02394202,0.23942018,10.27112484,-0.00852212,-0.07669904,-0.00106526
1691759716259186,-0.00957681,0.01436521,10.08437729,0.00000000,-0.06711166,-0.00213053
1691759716261222,-0.09097967,0.30166942,10.16099167,-0.00213053,-0.05965481,-0.00213053
1691759716263302,-0.08619126,0.06703765,10.16099167,-0.01278317,-0.04687164,-0.00106526
1691759716265211,-0.06224924,-0.06224924,10.04128170,-0.00639159,-0.03941479,0.00319579
1691759716267209,-0.08140286,0.25378537,10.08437729,0.00745685,-0.03621899,0.00426106
1691759716269186,-0.11971009,-0.18674773,10.05085850,0.00852212,-0.04048005,0.00106526
1691759716271370,-0.06703765,0.24420857,10.02691650,-0.00958738,-0.03408846,0.00639159
1691759716273254,0.01915361,0.08140286,10.05564690,-0.01704423,-0.01704423,0.00958738
1691759716275229,0.04788403,0.01915361,10.05085850,-0.02130529,-0.01810949,0.00852212
1691759716277247,0.07661445,0.34476504,10.00297451,-0.02982740,-0.02024002,0.00000000
1691759716279216,0.01915361,-0.04309563,10.07958889,-0.01917476,-0.01917476,-0.00106526
1691759716281247,-0.00478840,0.21068975,10.05564690,-0.02450108,-0.03089267,0.00852212
1691759716283218,-0.03351882,0.07182605,10.06522369,-0.03515373,-0.03941479,0.01278317
1691759716285260,-0.04788403,-0.07661445,10.15620327,-0.03408846,-0.04261058,0.00745685
1691759716287255,0.07661445,0.18674773,10.05085850,-0.02450108,-0.05326322,0.00426106
1691759716289213,0.08619126,-0.06703765,10.16099167,-0.04261058,-0.06604639,-0.00319579
1691759716291237,0.15322891,0.20590134,10.14662647,-0.02982740,-0.06391586,0.00106526
1691759716293222,0.07182605,0.22984336,10.05564690,-0.02130529,-0.07669904,-0.00532632
1691759716295253,0.05267244,0.13407530,10.09395409,-0.02556635,-0.08628642,-0.00852212
1691759716297256,0.11971009,0.22984336,9.96945572,-0.00958738,-0.08841695,-0.00532632
1691759716299181,-0.05746084,-0.11971009,10.05085850,0.01171791,-0.09374327,0.00319579
1691759716301209,-0.00957681,0.22984336,10.03649330,0.01384844,-0.09054748,-0.00745685
1691759716303217,0.01915361,0.09576806,9.97903252,0.01278317,-0.08841695,0.00745685
1691759716305287,0.09097967,0.16759412,10.06043530,0.01597897,-0.09480853,0.01278317
1691759716307215,0.22026655,0.26336220,10.04607010,-0.00852212,-0.08948221,0.00532632
1691759716309188,0.06224924,0.00957681,10.04128170,-0.01171791,-0.07776430,-0.00639159
1691759716311232,0.06703765,0.32082301,10.05564690,-0.01171791,-0.07776430,0.01065264
1691759716313272,-0.04788403,-0.01436521,10.00297451,-0.02769688,-0.06498113,0.00319579
1691759716315360,-0.03351882,0.09576806,10.00776291,-0.03089267,-0.05432849,0.00958738
1691759716317209,0.02394202,0.02873042,10.01733971,-0.01917476,-0.04900216,0.01704423
1691759716319198,-0.06224924,-0.02394202,9.89762974,-0.01065264,-0.04474111,0.02024002
1691759716321272,0.02394202,0.43574470,9.90241814,0.00000000,-0.04793690,0.01171791
1691759716323239,-0.02394202,-0.02394202,9.98382092,0.02130529,-0.04580637,0.01384844
1691759716325233,0.15322891,0.36870706,9.84974575,0.03089267,-0.03515373,0.00639159
1691759716327236,0.11971009,0.15801731,9.94072533,0.03515373,-0.03621899,0.00958738
1691759716329193,-0.08140286,-0.04788403,9.89284134,0.02024002,-0.04687164,0.00958738
1691759716331251,0.03351882,0.39743748,9.81622696,0.00426106,-0.04048005,0.01810949
1691759716333231,-0.11492168,-0.20111294,9.93114853,0.00319579,-0.04048005,0.00958738
1691759716335203,0.07661445,0.11492168,9.73961258,-0.00106526,-0.06072007,0.00958738
1691759716337273,0.03351882,0.05746084,9.83538055,-0.01597897,-0.07030746,-0.00639159
1691759716339231,-0.01915361,-0.20111294,9.85932255,-0.01810949,-0.08096009,0.00213053
1691759716341243,0.19632454,0.28730419,9.73003578,-0.01491370,-0.09587380,-0.00426106
1691759716343285,-0.02873042,-0.11492168,9.98382092,-0.02663161,-0.10865697,0.00532632
1691759716345237,0.10534488,0.13886370,9.82101536,-0.03834952,-0.10439591,0.00213053
1691759716347240,0.06224924,0.10534488,9.84016895,-0.04048005,-0.10013486,0.00745685
1691759716349197,0.01915361,-0.11971009,9.89284134,-0.03621899,-0.08735169,0.00000000
1691759716351204,0.08140286,0.24899697,9.75397778,-0.02450108,-0.08202536,0.00852212
1691759716353223,-0.18674773,-0.12928689,9.95030212,-0.02769688,-0.06711166,0.01491370
1691759716355256,-0.02394202,0.16759412,9.79228497,-0.01704423,-0.05645901,-0.00106526
1691759716357262,-0.02394202,0.15322891,9.71088219,-0.00852212,-0.05219796,0.00106526
1691759716359187,-0.06703765,0.03351882,9.85932255,-0.01171791,-0.04474111,-0.01384844
1691759716361246,0.05267244,0.28251579,9.81622696,-0.01597897,-0.03089267,0.00106526
1691759716363254,-0.17238252,-0.01436521,9.84495735,-0.00319579,-0.02663161,-0.00958738
1691759716365229,0.00000000,0.23463176,9.78749657,-0.00532632,-0.02769688,0.00106526
1691759716367224,-0.02873042,0.15801731,9.81622696,-0.01065264,-0.01491370,0.00213053
1691759716369162,-0.03830723,0.02873042,9.80186176,-0.00639159,0.00319579,0.00319579
1691759716371264,0.05746084,0.21068975,9.80665016,-0.00745685,-0.00639159,0.00426106
1691759716373203,-0.19153613,0.00957681,9.80186176,-0.01384844,-0.01384844,0.00106526
1691759716375207,0.00000000,0.25857377,9.73482418,0.00319579,-0.01491370,-0.00745685
1691759716377195,-0.06703765,-0.00957681,9.91678333,0.01810949,-0.01704423,-0.00852212
1691759716379210,0.01436521,0.01436521,9.74440098,0.02130529,-0.02450108,-0.00639159
1691759716381219,0.06703765,0.23463176,9.76834297,0.01917476,-0.02024002,-0.00639159
1691759716383234,-0.20111294,-0.03351882,9.85453415,0.03089267,0.00319579,-0.00745685
1691759716385200,0.12449849,0.36870706,9.55765343,0.03834952,0.03728426,-0.01384844
1691759716387204,-0.03830723,0.08619126,9.76355457,0.02663161,0.08096009,0.00319579
1691759716389231,-0.05746084,0.11013328,9.65342140,0.00213053,0.11398330,0.00745685
1691759716391232,0.02873042,0.21547815,9.59596062,-0.00319579,0.12250541,0.01171791
1691759716393221,-0.37828386,-0.18674773,9.77313137,-0.01704423,0.12250541,0.01491370
1691759716395345,-0.06224924,0.22026655,9.43315506,-0.01171791,0.09693906,0.01597897
1691759716397326,-0.13407530,-0.10534488,9.67736340,0.02237055,0.05965481,-0.01491370
1691759716399187,-0.12449849,-0.11971009,9.63905621,0.02343582,0.05006743,-0.01491370
1691759716401210,0.18195933,0.34476504,9.41878986,0.01810949,0.03728426,-0.00745685
1691759716403227,-0.08140286,-0.08140286,9.69651699,0.02556635,0.01171791,-0.00213053
1691759716405280,0.20111294,0.33039984,9.39963627,0.04580637,0.03302320,0.00639159
1691759716407224,0.13886370,0.20590134,9.48103905,0.05219796,0.06178534,0.00426106
1691759716409250,0.10055647,0.13886370,9.40442467,0.06285060,0.08735169,0.00106526
1691759716411327,0.17717093,0.36391866,9.03571701,0.07456851,0.09800433,-0.00852212
1691759716413285,-0.15322891,0.05746084,9.06444740,0.07882957,0.10546118,-0.01278317
1691759716415228,0.02394202,0.26815060,8.67658710,0.08096009,0.09587380,-0.03089267
1691759716417205,-0.11492168,0.25857377,8.44195557,0.07243798,0.08309063,-0.04580637
1691759716419180,-0.20590134,-0.03351882,8.42280197,0.06817693,0.08202536,-0.02876214
1691759716421257,-0.01915361,0.02873042,8.03972912,0.07456851,0.05752428,-0.01491370
1691759716423332,-0.05267244,0.18674773,7.81946278,0.06711166,0.06924219,-0.00532632
1691759716425242,0.16759412,0.08619126,7.43160200,0.06285060,0.08735169,0.00639159
1691759716427224,0.10534488,0.12449849,7.29752684,0.07030746,0.08948221,-0.00213053
1691759716429219,0.00000000,0.06703765,7.26879644,0.05858954,0.16724652,0.01491370
1691759716431250,-0.24899697,0.19153613,7.10120201,0.06711166,0.14487596,-0.00319579
1691759716433218,-0.02394202,0.01915361,6.93360806,0.04687164,0.13848437,0.00000000
1691759716435366,-0.28251579,0.24899697,6.92403126,0.04474111,0.15872440,0.01491370
1691759716437222,0.05267244,-0.02873042,6.58884287,0.05326322,0.05113269,-0.01065264
1691759716439215,-0.12449849,0.10055647,6.64151573,0.04048005,0.07243798,-0.00745685
1691759716441323,-0.01915361,0.20111294,6.64630413,0.03302320,0.05113269,-0.02130529
1691759716443218,0.11013328,0.00000000,6.33984613,0.03728426,-0.01810949,-0.02343582
1691759716445320,0.01436521,0.16280572,6.39251852,0.03302320,0.01065264,0.00852212
1691759716447285,0.21068975,0.12928689,6.39251852,0.02663161,-0.03302320,-0.01597897
1691759716449272,0.17238252,0.18195933,6.28238535,0.03089267,-0.02982740,-0.00745685
1691759716451211,0.05267244,0.08140286,6.33984613,0.02343582,-0.00426106,-0.00426106
1691759716453275,0.13407530,0.18674773,6.33505774,0.04793690,-0.04900216,-0.00745685
1691759716455289,0.04788403,0.15801731,6.32069254,0.05965481,-0.01171791,-0.00426106
1691759716457226,-0.09576806,0.13407530,6.39730692,0.05432849,0.00213053,-0.01704423
1691759716459207,-0.02873042,0.24899697,6.40688372,0.06498113,-0.00426106,-0.01810949
1691759716461218,-0.09097967,0.22984336,6.39251852,0.06285060,0.01384844,-0.01171791
1691759716463326,-0.27293900,0.22984336,6.48828650,0.05006743,0.02769688,-0.00426106
1691759716465248,-0.11971009,0.20111294,6.54095888,0.05006743,0.03302320,-0.01384844
1691759716467285,-0.05746084,0.22984336,6.52659369,0.03621899,0.01917476,-0.00319579
1691759716469188,-0.13407530,0.24420857,6.59841967,0.05219796,0.02237055,-0.00639159
1691759716471260,0.03830723,0.19153613,6.67982292,0.04367584,0.02130529,-0.00852212
1691759716473253,0.10534488,0.24899697,6.65588093,0.03195793,0.00000000,-0.00106526
1691759716475234,-0.01915361,0.22505496,6.68939972,0.03408846,-0.00426106,-0.00319579
1691759716477292,0.09576806,0.22026655,6.81868649,0.03089267,-0.01278317,0.00426106
1691759716479187,0.15801731,0.17717093,6.85220528,0.04367584,-0.00532632,0.00852212
1691759716481251,0.02394202,0.14365210,6.88093567,0.04154531,0.00106526,0.01491370
1691759716483215,0.04309563,0.14844051,6.94797325,0.04900216,-0.00319579,0.00213053
1691759716485302,0.01436521,-0.00957681,7.02458763,0.05113269,0.01491370,-0.00426106
1691759716487209,-0.06703765,0.08140286,7.12035608,0.03728426,0.02876214,-0.00532632
1691759716489218,-0.06224924,0.02394202,7.21133566,0.02769688,0.02876214,-0.00852212
1691759716491313,-0.12928689,-0.05746084,7.33583403,0.02450108,0.03941479,-0.00532632
1691759716493250,-0.17238252,0.06224924,7.36935282,0.02876214,0.04367584,-0.00106526
1691759716495233,-0.17717093,0.06224924,7.37892962,0.02450108,0.04048005,-0.00532632
1691759716497325,-0.22505496,0.06224924,7.55131197,0.01917476,0.03515373,-0.00426106
1691759716499219,-0.18674773,0.18195933,7.55610037,0.02876214,0.03302320,-0.01278317
1691759716501212,-0.17717093,0.18674773,7.50342798,0.03834952,0.03408846,0.00213053
1691759716503203,-0.20590134,0.12928689,7.68538761,0.02982740,0.02769688,0.00745685
1691759716505276,-0.11492168,0.16759412,7.68059921,0.02769688,0.02130529,0.00958738
1691759716507354,-0.11492168,0.09097967,7.67581081,0.03089267,0.02556635,0.01491370
1691759716509237,-0.10534488,-0.02873042,7.89128876,0.01810949,0.02556635,0.00532632
1691759716511206,0.05267244,0.03830723,7.87692356,0.01171791,0.01384844,0.00745685
1691759716513242,-0.10534488,-0.03830723,7.89607716,0.01597897,0.01065264,-0.00426106
1691759716515306,-0.13407530,-0.02394202,8.11634350,0.01597897,0.00958738,0.00319579
1691759716517283,-0.03351882,0.11492168,8.09240150,0.01065264,0.00639159,-0.00213053
1691759716519192,-0.17238252,0.01915361,8.14507389,0.00319579,0.00106526,0.00426106
1691759716521231,-0.09097967,0.07661445,8.27436066,0.00319579,-0.00426106,-0.00532632
1691759716523247,-0.04788403,0.07182605,8.31745625,-0.00426106,-0.00106526,-0.00745685
1691759716525228,-0.11013328,-0.05746084,8.30309105,-0.00745685,0.00426106,-0.01065264
1691759716527214,-0.00957681,0.06224924,8.36534119,-0.01065264,-0.00106526,-0.00639159
1691759716529203,-0.07661445,0.03351882,8.47068596,-0.00319579,-0.00213053,-0.00745685
1691759716531285,-0.02873042,0.14844051,8.43237877,0.00958738,0.01597897,0.00639159
1691759716533201,-0.00478840,0.20111294,8.50899315,0.01491370,0.01597897,0.01171791
1691759716535258,-0.07661445,0.12928689,8.58081913,0.01917476,0.01917476,0.02024002
1691759716537247,0.06703765,0.25857377,8.52335835,0.02024002,0.02237055,0.00745685
1691759716539257,-0.03351882,0.11492168,8.77714348,0.02450108,0.03941479,0.01065264
1691759716541281,0.05746084,0.16280572,8.70531750,0.02130529,0.04261058,0.00958738
1691759716543222,0.16759412,0.22984336,8.60476112,0.02024002,0.04793690,0.00639159
1691759716545280,-0.12928689,0.11013328,8.93994904,0.01491370,0.06178534,0.00106526
1691759716547275,0.07182605,0.26815060,8.83460426,0.01171791,0.05858954,0.00639159
1691759716549239,0.07182605,0.13407530,8.87291145,0.00426106,0.07137272,0.01171791
1691759716551299,-0.13407530,0.07661445,9.10754299,-0.00319579,0.07456851,0.00958738
1691759716553233,0.11492168,0.23463176,8.87291145,-0.00213053,0.08096009,0.01491370
1691759716555231,-0.05746084,-0.02394202,9.01656342,0.00106526,0.08415589,0.02024002
1691759716557280,-0.09576806,0.12449849,9.13627338,0.00745685,0.09587380,0.02876214
1691759716559190,0.04309563,0.21547815,8.93516064,0.00958738,0.11185277,0.02450108
1691759716561226,-0.13407530,0.00957681,9.14106178,0.02024002,0.15233281,0.03089267
1691759716563208,-0.01436521,0.22505496,9.05965900,0.03302320,0.16405073,0.02343582
1691759716565347,-0.00957681,0.11971009,8.96867943,0.02450108,0.18535601,0.01384844
1691759716567288,-0.12449849,0.04788403,9.18894577,0.02663161,0.21624868,0.00426106
1691759716569238,-0.10534488,0.17717093,9.05965900,0.06178534,0.22264026,0.01917476
1691759716571275,-0.20590134,0.19153613,9.01656342,0.07243798,0.22264026,0.00426106
1691759716573281,-0.17238252,0.15322891,9.13148499,0.05858954,0.22050974,0.02237055
1691759716575261,-0.12449849,0.07661445,9.03571701,0.04261058,0.20453078,0.00958738
1691759716577217,-0.03351882,-0.02873042,9.03092861,0.04474111,0.15978967,0.02237055
1691759716579214,0.02873042,-0.02394202,9.15063858,0.02982740,0.15233281,0.00532632
1691759716581296,-0.01915361,-0.01436521,9.14106178,0.02024002,0.12144014,0.01065264
1691759716583256,0.20111294,0.01915361,9.06923580,0.01384844,0.09267800,0.00000000
1691759716585206,0.17717093,0.02394202,9.26077175,-0.00106526,0.09267800,0.00532632
1691759716587268,0.10055647,0.11492168,9.22246456,-0.00639159,0.07563377,0.00106526
1691759716589266,0.28251579,0.21547815,9.16021538,-0.00106526,0.05539375,0.00852212
1691759716591219,0.04309563,0.04309563,9.38527107,-0.01384844,0.05752428,0.01065264
1691759716593242,0.19632454,0.21547815,9.20331097,-0.01704423,0.06924219,0.01597897
1691759716595200,0.30166942,0.08619126,9.24640656,-0.00106526,0.06391586,0.01171791
1691759716597266,-0.08619126,-0.02873042,9.49061584,0.01278317,0.07456851,0.02130529
1691759716599212,0.09576806,0.29688102,9.25119495,0.00426106,0.07776430,0.01704423
1691759716601264,-0.14365210,-0.01915361,9.46667385,-0.00319579,0.09693906,0.02556635
1691759716603211,-0.18674773,0.09097967,9.48582745,0.01384844,0.11504856,0.02237055
1691759716605241,0.11492168,0.09576806,9.30865574,0.02663161,0.10013486,0.01704423
1691759716607356,-0.20111294,-0.14844051,9.64384460,0.01810949,0.10759171,0.00532632
1691759716609333,0.02394202,0.19632454,9.48582745,0.01704423,0.10972223,0.02663161
1691759716611211,0.00000000,0.00957681,9.46667385,0.01917476,0.09906960,0.03302320
1691759716613291,-0.04309563,0.16759412,9.64384460,0.00852212,0.08522116,0.00852212
1691759716615294,0.31124622,0.27293900,9.48103905,-0.00319579,0.08202536,0.00426106
1691759716617215,0.09097967,-0.07661445,9.62469101,-0.01278317,0.08841695,0.00958738
1691759716619198,0.19632454,0.22505496,9.63426781,-0.02237055,0.08841695,-0.00426106
1691759716621203,0.05746084,0.07182605,9.60074902,-0.02663161,0.09587380,0.00852212
1691759716623276,-0.06703765,0.12928689,9.73003578,-0.02024002,0.11078750,-0.00958738
1691759716625225,0.06224924,0.06224924,9.72524738,-0.02024002,0.11717909,-0.00639159
1691759716627416,-0.11971009,-0.14844051,9.71567059,-0.00213053,0.10013486,-0.01810949
1691759716629209,0.00957681,0.19153613,9.76355457,-0.00852212,0.08415589,0.00532632
1691759716631265,-0.14844051,-0.08619126,9.89762974,-0.01278317,0.08096009,0.00426106
1691759716633257,0.08619126,0.20111294,9.74918938,-0.02343582,0.06817693,0.01704423
1691759716635244,0.23942018,0.19153613,9.81622696,-0.02556635,0.05645901,0.00319579
1691759716637213,0.03351882,-0.01436521,9.90241814,-0.02450108,0.03621899,0.01065264
1691759716639199,0.33039984,0.35434186,9.79707336,-0.02769688,0.01491370,0.00319579
1691759716641367,0.04788403,0.07661445,10.07001209,-0.02343582,0.00319579,0.00319579
1691759716643278,0.11971009,0.14844051,9.91678333,-0.02663161,-0.00532632,-0.00106526
1691759716645313,0.09576806,0.13886370,9.95030212,-0.03408846,-0.02237055,-0.01171791
1691759716647235,-0.10055647,-0.12928689,10.09874249,-0.05006743,-0.02024002,-0.01810949
1691759716649327,0.24420857,0.17717093,9.94072533,-0.04367584,-0.02343582,-0.01065264
1691759716651242,0.02394202,-0.06224924,10.17535686,-0.04793690,-0.03089267,0.00532632
1691759716653201,0.11492168,0.20111294,9.99818611,-0.05326322,-0.02024002,0.00958738
1691759716655294,0.14365210,0.20590134,10.00776291,-0.05113269,-0.02024002,0.01171791
1691759716657251,0.00000000,-0.03351882,10.10831928,-0.06178534,-0.01704423,0.00958738
1691759716659220,0.22505496,0.24899697,9.92157173,-0.07563377,-0.01491370,0.01917476
1691759716661199,-0.11971009,-0.11971009,10.13226128,-0.07350325,-0.02450108,0.02343582
1691759716663250,-0.04788403,0.13886370,10.07001209,-0.05752428,-0.02663161,0.02343582
1691759716665286,0.03351882,0.12928689,10.03170490,-0.03834952,-0.02450108,0.01278317
1691759716667348,0.00000000,-0.04309563,10.18014526,-0.03089267,-0.03408846,0.01704423
1691759716669201,0.21068975,0.27772740,10.08437729,-0.03621899,-0.03834952,0.00319579
1691759716671230,0.00478840,0.01436521,10.18014526,-0.04261058,-0.03089267,-0.00106526
1691759716673271,0.15801731,0.33997664,10.11789608,-0.05006743,-0.03408846,-0.00426106
1691759716675209,0.13886370,0.22984336,10.08437729,-0.06178534,-0.02982740,-0.00639159
1691759716677281,0.01436521,0.02394202,10.10353088,-0.05752428,-0.02343582,0.00106526
1691759716679180,0.00000000,0.29688102,10.12268448,-0.04580637,-0.01704423,0.01597897
1691759716681280,-0.19153613,0.00957681,10.14662647,-0.04154531,0.00532632,0.02130529
1691759716683243,-0.03351882,0.20111294,10.10831928,-0.01810949,0.00745685,0.01704423
1691759716685296,-0.07661445,0.04309563,10.22802925,-0.00745685,0.00852212,0.01278317
1691759716687225,0.06703765,0.11492168,10.11310768,0.00213053,0.00745685,0.01491370
1691759716689203,0.06703765,0.36870706,10.20887566,0.01278317,0.00000000,0.01065264
1691759716691302,-0.01915361,0.13407530,10.15141487,0.01704423,-0.01278317,0.02343582
1691759716693213,0.25378537,0.29209262,9.98860931,0.00532632,-0.01704423,0.02237055
1691759716695215,-0.04788403,0.01915361,10.21845245,0.00426106,-0.03834952,0.01810949
1691759716697265,0.09576806,0.07182605,10.04607010,-0.01065264,-0.05113269,0.01491370
1691759716699231,0.31603462,0.22026655,9.98860931,-0.02982740,-0.05645901,0.00532632
1691759716701224,0.04309563,0.01436521,10.22324085,-0.03195793,-0.06817693,0.00532632
1691759716703329,0.21068975,0.14844051,9.99818611,-0.03408846,-0.08096009,-0.00106526
1691759716705243,0.10534488,0.11492168,10.14662647,-0.04154531,-0.08096009,0.00852212
1691759716707363,-0.05267244,-0.08140286,10.20887566,-0.04793690,-0.08096009,0.00000000
1691759716709206,0.18674773,0.15801731,10.08437729,-0.05006743,-0.08948221,0.00426106
1691759716711198,-0.08619126,-0.03830723,10.22324085,-0.04687164,-0.08948221,0.00213053
1691759716713234,0.15322891,0.22026655,9.97903252,-0.03089267,-0.08948221,0.00639159
1691759716715383,0.13407530,0.11492168,10.11310768,-0.03195793,-0.10120012,0.00958738
1691759716717290,0.08619126,0.07661445,10.12747288,-0.05326322,-0.10333065,0.00745685
1691759716719185,-0.00478840,0.03830723,10.09395409,-0.05432849,-0.09587380,0.00426106
1691759716721253,0.03830723,0.03351882,10.14183807,-0.05858954,-0.09161274,0.00106526
1691759716723248,0.06703765,0.10055647,10.14662647,-0.06498113,-0.08841695,0.00000000
1691759716725317,-0.07661445,0.06224924,10.14183807,-0.07137272,-0.08841695,-0.00532632
1691759716727228,0.11492168,0.15801731,10.13704967,-0.05432849,-0.09161274,-0.00745685
1691759716729185,0.00000000,0.07182605,10.13704967,-0.05752428,-0.08415589,-0.00745685
1691759716731265,-0.00957681,0.11971009,10.11310768,-0.05752428,-0.07137272,-0.00106526
1691759716733239,0.03351882,0.07182605,10.16578007,-0.05219796,-0.06178534,0.00745685
1691759716735279,-0.03351882,0.00000000,10.08916569,-0.03834952,-0.05645901,-0.00426106
1691759716737195,0.08619126,0.19153613,10.03649330,-0.02876214,-0.05752428,-0.00958738
1691759716739258,-0.12928689,0.18674773,10.27112484,-0.01491370,-0.05006743,0.00319579
1691759716741190,-0.00478840,0.08140286,10.15141487,-0.01065264,-0.05326322,0.00852212
1691759716743283,0.10055647,0.18195933,10.21366405,-0.00958738,-0.07030746,0.00000000
1691759716745209,-0.16759412,0.11013328,10.22324085,-0.01065264,-0.07456851,0.00958738
1691759716747288,0.08619126,0.04309563,10.07001209,-0.01384844,-0.07563377,0.00958738
1691759716749225,-0.00957681,0.13886370,10.18014526,-0.04154531,-0.09587380,-0.00426106
1691759716751205,0.06703765,0.16280572,10.10353088,-0.04900216,-0.10013486,-0.00213053
1691759716753231,-0.09097967,-0.02873042,10.16578007,-0.05752428,-0.10013486,-0.00106526
1691759716755201,0.09576806,0.17238252,10.19929886,-0.06711166,-0.10013486,0.00426106
1691759716757295,0.15322891,0.09576806,10.03170490,-0.06604639,-0.11185277,0.00532632
1691759716759183,0.04309563,0.15322891,10.11789608,-0.05965481,-0.10865697,0.00213053
1691759716761319,0.11492168,0.10534488,9.97424412,-0.04048005,-0.10546118,-0.00532632
1691759716763204,0.11492168,0.30166942,10.02212811,-0.02769688,-0.10120012,-0.00106526
1691759716765291,-0.03351882,0.22984336,10.09395409,-0.02450108,-0.09480853,0.00426106
1691759716767290,-0.01436521,-0.02873042,10.01255131,-0.01917476,-0.09906960,0.00319579
1691759716769218,0.06703765,0.26815060,9.92157173,-0.02130529,-0.10652644,0.01065264
1691759716771207,0.05267244,0.18674773,9.95030212,-0.02343582,-0.10546118,0.00639159
1691759716773209,0.12449849,0.13886370,9.87847614,-0.03089267,-0.10013486,0.00745685
1691759716775317,0.15322891,0.26815060,9.85932255,-0.03089267,-0.09906960,0.00213053
1691759716777209,0.06703765,0.08619126,9.91678333,-0.03302320,-0.10120012,0.00213053
1691759716779181,0.05746084,0.13407530,9.80665016,-0.03941479,-0.08415589,-0.01491370
1691759716781234,0.04309563,0.12449849,9.80665016,-0.04261058,-0.07669904,-0.02024002
1691759716783302,0.08619126,0.30645782,9.82580376,-0.04154531,-0.07243798,-0.01810949
1691759716785237,-0.03830723,0.15801731,9.73003578,-0.03621899,-0.07456851,-0.01704423
1691759716787217,-0.07182605,-0.03830723,9.82580376,-0.02769688,-0.07350325,-0.01065264
1691759716789215,0.09576806,0.31603462,9.70609379,-0.01171791,-0.06817693,-0.00532632
1691759716791164,0.12928689,0.17238252,9.66778660,-0.01491370,-0.07137272,0.00319579
1691759716793232,-0.11492168,0.26336220,9.83059216,0.00319579,-0.07137272,0.00745685
1691759716795201,0.14844051,0.38307226,9.71567059,0.00319579,-0.07456851,0.00532632
1691759716797237,-0.10534488,0.00957681,9.83538055,0.00106526,-0.06817693,-0.00213053
1691759716799204,0.06224924,0.38307226,9.86411095,-0.00958738,-0.06604639,0.00000000
1691759716801268,0.09097967,0.03830723,9.69172859,-0.01171791,-0.06178534,0.00319579
1691759716803271,-0.07182605,0.04309563,9.76834297,-0.00639159,-0.06604639,0.00213053
1691759716805208,-0.10534488,0.15322891,9.82580376,-0.00852212,-0.05965481,0.00319579
1691759716807251,-0.07182605,-0.04309563,9.71567059,-0.01065264,-0.05645901,0.00852212
1691759716809234,-0.11971009,0.17238252,9.87368774,-0.01278317,-0.05326322,-0.00106526
1691759716811317,-0.04788403,-0.16759412,9.78270817,-0.00745685,-0.05432849,0.00319579
1691759716813217,0.00957681,0.12928689,9.74918938,-0.00852212,-0.05113269,0.00213053
1691759716815262,0.05746084,0.17717093,9.86889935,-0.00319579,-0.04687164,0.00426106
1691759716817251,0.10055647,-0.06703765,9.80665016,0.00000000,-0.05113269,-0.00745685
1691759716819214,0.17717093,0.36391866,9.77313137,-0.00532632,-0.04793690,0.00213053
1691759716821208,0.06703765,-0.01915361,9.84495735,-0.00426106,-0.05219796,-0.00532632
1691759716823262,0.05746084,0.21547815,9.79707336,-0.02130529,-0.05539375,0.00106526
1691759716825251,0.09576806,0.15801731,9.78749657,-0.02556635,-0.05113269,0.00426106
1691759716827260,-0.06703765,-0.04788403,9.89284134,-0.01704423,-0.04261058,0.01491370
1691759716829184,-0.01436521,0.23942018,9.75397778,-0.00426106,-0.04580637,-0.00213053
1691759716831226,-0.09576806,-0.06703765,9.79228497,-0.01810949,-0.04048005,-0.00319579
1691759716833283,-0.10534488,0.11971009,9.84495735,-0.00639159,-0.04154531,-0.00319579
1691759716835209,0.11971009,0.17238252,9.68694019,-0.00532632,-0.04261058,-0.00426106
1691759716837261,0.02873042,0.07182605,9.85932255,-0.00639159,-0.04793690,-0.00426106
1691759716839179,0.11971009,0.46926352,9.74440098,0.00426106,-0.04367584,0.00000000
1691759716841301,0.11492168,0.11971009,9.72045898,0.01917476,-0.03728426,0.00426106
1691759716843222,0.01436521,0.33039984,9.86411095,0.02982740,-0.03089267,0.00000000
1691759716845268,0.13407530,0.26815060,9.70130539,0.04367584,-0.02556635,0.00852212
1691759716847204,-0.05267244,0.00000000,9.79707336,0.05326322,-0.00958738,-0.00319579
1691759716849247,-0.06703765,0.30166942,9.82580376,0.05539375,0.00639159,-0.00639159
1691759716851283,-0.05267244,-0.05267244,9.69651699,0.05113269,0.00745685,-0.00639159
1691759716853198,-0.09097967,0.22505496,9.84016895,0.04900216,-0.00426106,0.00213053
1691759716855229,0.00478840,0.04309563,9.76834297,0.04154531,0.00213053,0.00532632
1691759716857236,0.01436521,0.09576806,9.74918938,0.04687164,0.00106526,0.01278317
1691759716859225,0.11492168,0.40222588,9.84974575,0.03621899,-0.00532632,0.00639159
1691759716861211,0.13407530,-0.02873042,9.75397778,0.03302320,-0.02024002,0.00852212
1691759716863209,0.16280572,0.40222588,9.76834297,0.02343582,-0.01810949,0.00958738
1691759716865225,0.08619126,0.05746084,9.88326454,0.03195793,-0.02876214,0.01065264
1691759716867279,0.01436521,0.09576806,9.80665016,0.01491370,-0.03941479,-0.00319579
1691759716869198,0.07182605,0.33518824,9.81622696,0.00745685,-0.05113269,-0.00213053
1691759716871217,-0.08619126,-0.18674773,9.94551373,0.01384844,-0.05326322,-0.00319579
1691759716873223,0.02394202,0.16280572,9.84974575,0.02450108,-0.05645901,0.00213053
1691759716875144,-0.35913026,-0.36870706,9.95509052,0.02130529,-0.05432849,0.00213053
1691759716877230,-0.25378537,-0.05267244,9.80186176,0.02556635,-0.04048005,0.00745685
1691759716879178,-0.37828386,-0.26815060,9.90241814,0.04048005,-0.03302320,0.00852212
1691759716881273,-0.49320555,-0.17238252,9.96945572,0.05113269,-0.01704423,0.00426106
1691759716883293,-0.22984336,0.07661445,9.73482418,0.07456851,-0.00319579,0.00106526
1691759716885354,-0.29688102,-0.24420857,9.92636013,0.07030746,0.00852212,-0.00532632
1691759716887209,-0.10534488,0.20590134,9.84974575,0.07030746,0.01171791,0.00106526
1691759716889186,0.01436521,0.00957681,9.78749657,0.06924219,0.01384844,0.00000000
1691759716891336,-0.13407530,0.16759412,9.88805294,0.07456851,0.01171791,0.00639159
1691759716893201,0.20111294,0.39264908,9.75397778,0.06178534,0.00639159,-0.00319579
1691759716895203,0.02394202,-0.06703765,9.81622696,0.06604639,-0.00213053,-0.00532632
1691759716897196,0.00478840,0.31124622,9.90241814,0.06391586,-0.01171791,-0.00852212
1691759716899202,-0.01436521,-0.01436521,9.83059216,0.04154531,-0.01065264,-0.01171791
1691759716901204,-0.07182605,0.02394202,9.91199493,0.02663161,-0.03195793,-0.01917476
1691759716903250,0.06703765,0.00000000,9.85932255,0.01810949,-0.03834952,-0.01704423
1691759716905211,-0.01915361,-0.21547815,9.80186176,0.02876214,-0.04367584,-0.01384844
1691759716907305,0.06224924,0.28730419,9.90241814,0.02663161,-0.03834952,-0.00745685
1691759716909234,0.01436521,-0.10055647,9.83059216,0.02450108,-0.04261058,0.01597897
1691759716911211,0.15801731,0.23942018,9.79228497,0.01917476,-0.02982740,0.00958738
1691759716913239,-0.11971009,-0.10055647,9.91678333,0.04793690,-0.00426106,0.00958738
1691759716915200,0.04788403,0.01436521,9.88326454,0.05432849,0.00852212,-0.00532632
1691759716917286,0.10534488,0.50278234,9.82101536,0.06498113,0.01810949,0.00852212
1691759716919185,-0.15322891,0.00957681,9.93114853,0.06604639,0.02450108,0.00213053
1691759716921257,-0.02394202,0.22505496,9.75876617,0.07456851,0.03834952,0.01278317
1691759716923236,0.06224924,0.11492168,9.82101536,0.07669904,0.03941479,0.00213053
1691759716925360,-0.20111294,-0.13886370,9.92636013,0.06711166,0.03515373,0.00958738
1691759716927219,0.08140286,0.28251579,9.71567059,0.05752428,0.03195793,0.00852212
1691759716929186,-0.04788403,-0.08140286,9.88326454,0.05432849,0.02982740,0.00106526
1691759716931248,0.09097967,0.29688102,9.73003578,0.03408846,0.01278317,-0.00958738
1691759716933178,0.26815060,0.14844051,9.76355457,0.00958738,0.01065264,-0.00745685
1691759716935245,-0.00478840,-0.00478840,9.95030212,0.02024002,0.00213053,-0.00639159
1691759716937331,0.25857377,0.45968673,9.74918938,0.03408846,0.00000000,-0.00426106
1691759716939203,-0.03830723,-0.00957681,9.96945572,0.04048005,-0.00532632,-0.00426106
1691759716941200,0.01915361,0.16280572,9.88805294,0.04474111,0.00213053,-0.00958738
1691759716943246,0.06224924,0.04309563,9.78749657,0.05113269,0.00745685,-0.00532632
1691759716945247,-0.15801731,-0.09576806,9.95030212,0.04793690,0.00106526,0.00000000
1691759716947289,0.01436521,0.28251579,9.86889935,0.03621899,-0.00426106,-0.00106526
1691759716949196,-0.09097967,-0.04309563,9.89762974,0.04687164,0.01065264,-0.00532632
1691759716951273,0.10055647,0.20590134,9.87368774,0.04048005,0.01065264,-0.00426106
1691759716953242,0.15801731,0.18195933,9.84495735,0.02556635,0.01278317,-0.01171791
1691759716955245,0.06224924,0.09097967,9.85453415,0.03089267,0.02130529,-0.00958738
1691759716957230,0.18195933,0.31603462,9.90720654,0.03834952,0.02769688,-0.01278317
1691759716959195,-0.01436521,-0.03830723,9.90241814,0.03089267,0.02663161,-0.00213053
1691759716961329,0.15322891,0.31603462,9.93114853,0.03408846,0.02556635,0.00852212
1691759716963208,0.00000000,-0.08140286,10.00297451,0.05326322,0.02556635,0.01171791
1691759716965239,-0.05267244,0.00478840,9.92636013,0.05113269,0.02556635,0.00000000
1691759716967259,0.07661445,0.26815060,9.93593693,0.04474111,0.02343582,0.00745685
1691759716969224,-0.15801731,-0.23463176,10.04128170,0.04367584,0.01384844,0.00426106
1691759716971305,0.10534488,0.27772740,9.94551373,0.03195793,0.01278317,-0.00426106
1691759716973270,-0.20590134,-0.14365210,10.10831928,0.02024002,0.01810949,-0.01278317
1691759716975234,0.13407530,0.13407530,9.98382092,0.02769688,0.01384844,-0.00319579
1691759716977291,0.18674773,0.31603462,9.92636013,0.04367584,0.01065264,-0.00319579
1691759716979218,-0.16280572,-0.00957681,10.09395409,0.05113269,0.01597897,-0.00639159
1691759716981200,0.12449849,0.32561144,9.86889935,0.04687164,0.02556635,-0.00639159
1691759716983273,-0.05746084,-0.00478840,10.07001209,0.03728426,0.03621899,-0.00532632
1691759716985270,-0.10055647,-0.01436521,9.97424412,0.03408846,0.03941479,-0.00745685
1691759716987338,0.04309563,0.20111294,9.84974575,0.04474111,0.03941479,-0.01065264
1691759716989189,-0.08619126,0.07661445,9.95030212,0.05113269,0.04474111,-0.00852212
1691759716991177,0.21068975,0.36870706,9.80665016,0.05113269,0.05539375,-0.00958738
1691759716993263,-0.22984336,-0.13407530,9.96945572,0.04580637,0.07030746,-0.00958738
1691759716995314,0.06703765,0.21547815,9.92636013,0.04048005,0.07563377,-0.01171791
1691759716997222,-0.12449849,-0.04788403,9.88326454,0.03515373,0.08948221,-0.00106526
1691759716999211,-0.18674773,-0.04788403,9.91678333,0.03408846,0.09800433,-0.00639159
1691759717001253,0.04309563,0.28730419,9.84495735,0.04261058,0.09161274,-0.00106526
1691759717003263,-0.13886370,-0.05746084,9.85932255,0.04154531,0.08309063,-0.01278317
1691759717005385,-0.07661445,0.07661445,9.81622696,0.03728426,0.08309063,-0.00639159
1691759717007234,-0.00957681,0.03351882,9.88326454,0.03408846,0.06817693,-0.01171791
1691759717009271,0.01436521,-0.03351882,9.80186176,0.04048005,0.06498113,-0.00426106
1691759717011263,-0.04309563,0.19632454,9.86889935,0.04580637,0.07456851,-0.00958738
1691759717013203,0.03351882,0.02873042,9.92157173,0.05006743,0.08096009,0.00532632
1691759717015210,0.13886370,0.26815060,9.76355457,0.07456851,0.08735169,-0.00213053
1691759717017148,0.01915361,0.25857377,9.86411095,0.07563377,0.09267800,0.00639159
1691759717019205,0.13886370,0.25378537,9.72045898,0.05645901,0.09161274,0.00532632
1691759717021243,0.14365210,0.27293900,9.79228497,0.05432849,0.08841695,0.01597897
1691759717023209,-0.25378537,-0.15322891,9.97903252,0.05006743,0.09161274,0.01384844
1691759717025233,0.06703765,0.17717093,9.71567059,0.03515373,0.08948221,0.01704423
1691759717027253,-0.01436521,0.09576806,9.93593693,0.02556635,0.08948221,0.00639159
1691759717029252,0.00000000,-0.01436521,9.88326454,0.03195793,0.09587380,0.01278317
1691759717031261,0.27772740,0.31124622,9.73003578,0.02024002,0.09587380,-0.00426106
1691759717033257,-0.06224924,0.04788403,10.03170490,0.01491370,0.08202536,-0.00745685
1691759717035297,0.21547815,0.35434186,9.75876617,0.01491370,0.07776430,-0.01065264
1691759717037270,0.09097967,0.11492168,9.85932255,0.02237055,0.07030746,-0.01384844
1691759717039184,0.02394202,0.00478840,9.89284134,0.02769688,0.05645901,-0.01917476
1691759717041217,0.12449849,0.20590134,9.75876617,0.03089267,0.04900216,0.00213053
1691759717043261,-0.22026655,-0.13407530,10.00776291,0.01065264,0.04048005,0.00106526
1691759717045248,0.08140286,0.11492168,9.81622696,-0.00532632,0.04687164,-0.00852212
1691759717047211,0.05267244,-0.01436521,9.83538055,-0.00532632,0.04580637,-0.00639159
1691759717049182,0.03830723,0.00478840,9.92157173,0.00319579,0.03089267,0.00426106
1691759717051285,-0.04309563,-0.02873042,9.87368774,0.00213053,0.03302320,-0.00426106
1691759717053263,0.05746084,0.06703765,9.90241814,0.00532632,0.03621899,-0.00639159
1691759717055225,0.02873042,0.12928689,9.92157173,0.00213053,0.02876214,-0.00213053
1691759717057165,0.08619126,0.11492168,9.92157173,-0.00532632,0.02556635,-0.00426106
1691759717059197,0.13886370,0.16280572,9.89284134,-0.00106526,0.03408846,-0.00745685
1691759717061217,0.02394202,0.15322891,9.97424412,0.00213053,0.02556635,0.00106526
1691759717063210,-0.02873042,-0.05746084,9.97424412,0.00106526,0.01810949,-0.00319579
1691759717065208,0.09097967,0.06703765,9.92636013,-0.00745685,0.01597897,-0.00106526
1691759717067238,-0.05267244,-0.02394202,10.03170490,-0.00852212,0.01917476,-0.00958738
1691759717069232,0.15801731,0.08140286,9.82580376,-0.00532632,0.01491370,-0.00319579
1691759717071258,0.12449849,0.22984336,9.98860931,-0.01171791,0.01278317,-0.00426106
1691759717073213,0.09097967,0.04788403,9.80665016,-0.01384844,0.01491370,0.00532632
1691759717075218,0.17717093,0.14844051,9.75876617,-0.01065264,0.01384844,-0.00106526
1691759717077270,0.03830723,0.09576806,9.90241814,-0.02769688,0.00852212,0.00000000
