timestamp,accel_x,accel_y,accel_z,gyro_x,gyro_y,gyro_z
1691768706628345,-0.01436521,0.12449849,9.81143856,-0.00106526,0.00426106,0.01810949
1691768706630375,-0.01915361,0.01436521,9.84495735,-0.00106526,-0.00213053,0.03195793
1691768706632344,-0.04788403,-0.13886370,9.86411095,-0.00852212,-0.00106526,0.02556635
1691768706634358,-0.04788403,-0.05267244,9.84495735,-0.01384844,-0.00106526,0.01065264
1691768706636360,-0.00957681,0.14844051,9.85932255,-0.01065264,-0.00106526,-0.00958738
1691768706638377,-0.03830723,0.20111294,9.87368774,0.00213053,-0.00213053,-0.01704423
1691768706640347,-0.02873042,0.07661445,9.83538055,0.00745685,0.00426106,-0.00958738
1691768706642348,-0.00478840,-0.03830723,9.79707336,-0.00319579,0.00426106,0.00426106
1691768706644354,-0.01436521,-0.00957681,9.82580376,-0.00852212,0.00532632,0.02024002
1691768706646373,-0.06224924,0.08140286,9.87368774,-0.00852212,0.00106526,0.02130529
1691768706648370,-0.03351882,0.22505496,9.88326454,0.00639159,-0.00319579,0.01491370
1691768706650346,-0.06224924,0.13407530,9.87368774,0.01704423,-0.00426106,0.00000000
1691768706652353,-0.04788403,-0.11013328,9.83538055,0.00639159,-0.00106526,-0.01171791
1691768706654384,0.00000000,-0.02394202,9.78270817,-0.01171791,0.00319579,-0.01278317
1691768706656366,-0.02873042,0.07661445,9.81622696,-0.01597897,0.00532632,-0.00319579
1691768706658353,-0.06703765,0.15801731,9.85453415,-0.00852212,0.00106526,0.01597897
1691768706660369,-0.05746084,0.07182605,9.85932255,0.00319579,-0.00426106,0.01917476
1691768706662377,-0.01915361,-0.11492168,9.82580376,0.00532632,-0.00319579,0.01597897
1691768706664406,-0.03830723,-0.09097967,9.81622696,-0.00532632,-0.00213053,0.00213053
1691768706665873,-0.03351882,-0.06703765,9.84016895,-0.00426106,-0.00213053,-0.00745685
1691768706668355,-0.05746084,0.16280572,9.83059216,0.00106526,0.00000000,-0.00745685
1691768706669859,-0.01436521,0.19632454,9.82101536,0.00639159,0.00213053,0.00000000
1691768706672391,-0.03351882,-0.01915361,9.82580376,0.00000000,0.00000000,0.01597897
1691768706674389,-0.00957681,-0.06703765,9.82101536,-0.00319579,0.00213053,0.02769688
1691768706675879,-0.01436521,-0.12928689,9.83059216,-0.01065264,0.00213053,0.02343582
1691768706677947,-0.06224924,0.04309563,9.85453415,-0.00426106,-0.00213053,0.00852212
1691768706679961,-0.07182605,0.18674773,9.87368774,0.01065264,-0.00213053,-0.00745685
1691768706681956,-0.05267244,0.09097967,9.86411095,0.01917476,-0.00213053,-0.02130529
1691768706683945,0.00000000,-0.03830723,9.78270817,0.00852212,0.00319579,-0.01810949
1691768706685972,0.01436521,-0.01436521,9.78270817,-0.01065264,0.00745685,-0.00319579
1691768706687985,-0.04309563,0.08140286,9.83538055,-0.01065264,0.00426106,0.01491370
1691768706689970,-0.06224924,0.19632454,9.85932255,-0.00213053,-0.00213053,0.02663161
1691768706691978,-0.01436521,0.13407530,9.87847614,0.00852212,-0.00319579,0.02130529
1691768706693958,-0.04309563,-0.01915361,9.84495735,0.00532632,0.00000000,0.00213053
1691768706696104,-0.06703765,-0.12449849,9.80665016,-0.00213053,0.00000000,-0.01278317
1691768706697960,-0.02873042,0.01915361,9.81143856,-0.00532632,0.00213053,-0.00958738
1691768706699988,-0.05746084,0.19153613,9.83059216,0.00106526,0.00213053,-0.00213053
1691768706701959,-0.05267244,0.13407530,9.84016895,0.00426106,0.00319579,0.01065264
1691768706704032,-0.02873042,0.00957681,9.80665016,-0.00213053,-0.00213053,0.01917476
1691768706706066,-0.06703765,-0.10534488,9.82580376,-0.00852212,-0.00319579,0.01597897
1691768706707964,-0.10055647,-0.03351882,9.86889935,-0.01278317,-0.00106526,0.00532632
1691768706710036,-0.01915361,0.18674773,9.84974575,0.00000000,-0.00106526,-0.00426106
1691768706712006,-0.06224924,0.22026655,9.84974575,0.00106526,0.00106526,-0.00532632
1691768706714092,-0.07661445,0.03830723,9.81622696,-0.00213053,-0.00319579,-0.00532632
1691768706715990,-0.01436521,-0.07661445,9.78270817,-0.01597897,0.00106526,0.00426106
1691768706718222,-0.01436521,-0.02873042,9.80186176,-0.01704423,0.00532632,0.01597897
1691768706719996,-0.05267244,0.11013328,9.84495735,-0.01171791,-0.00213053,0.01810949
1691768706722003,-0.08619126,0.12449849,9.88326454,0.00852212,-0.00532632,0.00852212
1691768706723985,-0.04788403,0.01436521,9.84495735,0.01171791,-0.00213053,-0.00319579
1691768706725986,0.00000000,-0.12449849,9.80186176,0.00426106,0.00000000,-0.01065264
1691768706727984,-0.03830723,-0.06703765,9.82580376,-0.00958738,0.00213053,-0.00745685
1691768706730119,-0.06224924,0.12928689,9.81143856,-0.00958738,0.00000000,0.00426106
1691768706732013,-0.04788403,0.22026655,9.82101536,-0.00532632,-0.00106526,0.01810949
1691768706734034,-0.03351882,0.11013328,9.84016895,0.00213053,-0.00106526,0.02663161
1691768706736006,-0.03830723,-0.03351882,9.81622696,-0.00426106,-0.00106526,0.01917476
1691768706738009,-0.02873042,-0.04788403,9.81143856,-0.01278317,-0.00106526,0.00639159
1691768706740516,-0.03351882,0.11492168,9.84974575,-0.00639159,0.00106526,-0.00958738
1691768706742042,-0.05267244,0.19153613,9.84495735,0.00532632,-0.00426106,-0.00745685
1691768706744044,-0.00957681,0.10055647,9.78270817,0.02237055,0.00319579,0.00745685
1691768706746335,0.02873042,-0.05267244,9.82101536,-0.01065264,0.00426106,0.03408846
1691768706748071,-0.07182605,-0.12449849,9.91678333,-0.01278317,0.00745685,0.06924219
1691768706750058,0.01436521,-0.02873042,10.07480049,-0.00639159,-0.00106526,0.07456851
1691768706752105,-0.02394202,0.08140286,10.19451046,0.00213053,-0.00852212,0.06178534
1691768706754228,0.00478840,0.05267244,10.11310768,0.01278317,0.01704423,0.09800433
1691768706756089,0.08140286,-0.06224924,9.95987892,0.00213053,0.03621899,0.16511598
1691768706758090,0.13407530,-0.21068975,9.91199493,0.02769688,0.04367584,0.24607609
1691768706760072,0.26336220,-0.18674773,9.92636013,0.05006743,0.06391586,0.31638354
1691768706762108,0.32082301,-0.05746084,9.90241814,0.05858954,0.07137272,0.38775626
1691768706764179,0.22026655,-0.01915361,9.81622696,0.05432849,0.09267800,0.44847631
1691768706766098,0.25857377,-0.12928689,9.87847614,0.04687164,0.14274544,0.50919640
1691768706768137,0.35434186,-0.22026655,10.00776291,0.02024002,0.19494340,0.58376491
1691768706770102,0.44053310,-0.27772740,10.06043530,0.03195793,0.23435818,0.66152924
1691768706772109,0.44053310,-0.23942018,10.16578007,0.01704423,0.28122982,0.71905351
1691768706774102,0.42616791,-0.14365210,10.32379818,0.01278317,0.34834146,0.77551252
1691768706776268,0.36870706,-0.05746084,10.26633644,0.01810949,0.42610577,0.83623260
1691768706778136,0.33518824,-0.08619126,10.29506683,0.00426106,0.48789111,0.86499470
1691768706780374,0.29209262,-0.29209262,10.53927612,-0.06072007,0.55393749,0.86499470
1691768706782109,0.23942018,-0.14365210,10.49139214,-0.10226539,0.64128917,0.86605996
1691768706784621,-0.02873042,-0.31124622,10.46745014,-0.09267800,0.71372718,0.87458211
1691768706785403,-0.02873042,-0.31124622,10.46745014,-0.09587380,0.72437984,0.86925578
1691768706787519,-0.01915361,-0.11013328,10.61110210,-0.10226539,0.74888092,0.85008103
1691768706789448,-0.11971009,-0.24899697,10.62546730,-0.07882957,0.78296936,0.77870828
1691768706791421,-0.03351882,-0.06224924,10.64462090,-0.07776430,0.77231669,0.80107886
1691768706793415,-0.15322891,-0.10534488,10.97502041,-0.05965481,0.76059878,0.80107886
1691768706795414,-0.03351882,-0.22984336,10.89840603,-0.02450108,0.76592511,0.76699042
1691768706797432,0.11013328,0.12449849,11.06121159,-0.01384844,0.74781561,0.76912093
1691768706799416,0.03830723,-0.07182605,11.44907284,-0.04154531,0.71266192,0.79468727
1691768706801446,0.21068975,-0.10055647,11.59751320,-0.01917476,0.69668293,0.80853570
1691768706803471,0.04309563,0.00000000,11.63103199,-0.00639159,0.68496501,0.79681778
1691768706805431,0.16280572,-0.24420857,11.87524033,-0.03195793,0.66259450,0.79149145
1691768706807424,0.14365210,-0.07661445,12.07635307,-0.07137272,0.65513760,0.81386203
1691768706809428,0.03830723,-0.15801731,12.15775585,-0.06924219,0.65300709,0.80960095
1691768706811477,0.05267244,-0.16759412,12.37323475,-0.05858954,0.63170183,0.78616518
1691768706813503,0.23942018,-0.13886370,12.37323475,-0.10546118,0.61785334,0.78509986
1691768706815435,0.10055647,-0.19632454,12.64617348,-0.12250541,0.58802599,0.76699042
1691768706817436,0.24420857,-0.21547815,12.61265469,-0.13209279,0.56352490,0.74994618
1691768706819416,0.28730419,-0.37828386,12.80419064,-0.16405073,0.53476274,0.74142402
1691768706821463,0.11492168,-0.19153613,12.92390060,-0.21092236,0.48363006,0.70520508
1691768706823450,0.28251579,-0.40222588,13.07712936,-0.23116238,0.43995422,0.68389976
1691768706825395,0.05267244,-0.36870706,13.12980175,-0.23648870,0.40693101,0.65726817
1691768706827423,0.49799395,-0.07182605,13.10585976,-0.27696875,0.36858150,0.64555025
1691768706829508,0.21068975,-0.30166942,13.41231823,-0.29294771,0.33449304,0.62211442
1691768706831480,0.30645782,-0.19153613,13.32133865,-0.25992453,0.31212249,0.60826600
1691768706833487,0.38786069,-0.16280572,13.39795303,-0.27377295,0.29614350,0.59654808
1691768706835420,0.09097967,-0.23463176,13.38837624,-0.29188246,0.28016454,0.57311225
1691768706837458,0.49320555,-0.06703765,13.46499062,-0.28868666,0.29720879,0.53582799
1691768706839489,-0.02394202,-0.32561144,13.44104862,-0.28975192,0.27590349,0.50600058
1691768706841381,0.45968673,0.06703765,13.35006905,-0.30146983,0.25566345,0.48576057
1691768706843464,-0.05746084,-0.26815060,13.40752983,-0.30466563,0.27377295,0.48363006
1691768706845443,0.29688102,-0.12928689,13.30218506,-0.31638354,0.23542345,0.46019423
1691768706847476,0.27293900,0.18195933,13.28303146,-0.31851408,0.21624868,0.48682585
1691768706849451,0.11492168,-0.13886370,13.20641613,-0.31105721,0.19707392,0.46658581
1691768706851460,0.39264908,0.25857377,13.19683933,-0.30679616,0.14807175,0.45060685
1691768706853447,0.22505496,0.13407530,13.08670616,-0.29507825,0.11611383,0.45273739
1691768706855436,0.48362875,0.11013328,12.94305420,-0.29720879,0.08202536,0.42930156
1691768706857451,0.18195933,0.18195933,12.82813263,-0.28868666,0.03408846,0.40693101
1691768706859422,0.26815060,0.32082301,12.85686302,-0.27696875,-0.01171791,0.38136467
1691768706861445,-0.13407530,0.34955344,12.70842266,-0.27057716,-0.05219796,0.36858150
1691768706863466,0.33997664,0.23463176,12.49294472,-0.25885925,-0.10120012,0.35366780
1691768706865422,0.01915361,0.30645782,12.34929276,-0.26205504,-0.12676647,0.33449304
1691768706867430,0.33039984,0.18674773,12.24394703,-0.26738137,-0.16618125,0.33768883
1691768706869453,0.14844051,0.11492168,12.10508347,-0.23116238,-0.19707392,0.32064459
1691768706871594,0.24899697,0.32561144,11.96143150,-0.20559603,-0.21305288,0.31318775
1691768706873508,0.11492168,0.08140286,11.84172153,-0.18429075,-0.23009712,0.30679616
1691768706875417,0.15322891,0.00478840,11.77468395,-0.17363811,-0.23435818,0.29827404
1691768706877574,0.47884035,0.23942018,11.68370438,-0.16724652,-0.24181503,0.27590349
1691768706879492,0.11971009,-0.03351882,11.58314800,-0.13635385,-0.26312032,0.26098979
1691768706881481,0.28251579,0.25378537,11.56399441,-0.12357067,-0.26844662,0.25140241
1691768706883448,0.28251579,0.11013328,11.50174522,-0.11398330,-0.29188246,0.25140241
1691768706885459,0.09097967,-0.22026655,11.42034245,-0.08415589,-0.31105721,0.22796659
1691768706887467,0.43095630,0.30645782,11.35330486,-0.07563377,-0.33023196,0.22903186
1691768706889463,0.15801731,-0.06224924,11.31020927,-0.05539375,-0.34514567,0.21624868
1691768706891485,0.39743748,0.24420857,11.16655636,-0.02130529,-0.36645097,0.22157501
1691768706893484,0.35434186,0.31124622,11.05642319,-0.00106526,-0.36858150,0.19707392
1691768706895479,0.28251579,0.09097967,10.99417400,0.01278317,-0.37497309,0.18748654
1691768706897442,0.34476504,0.55066639,10.89840603,0.06072007,-0.36964676,0.17789917
1691768706899502,0.06703765,0.18195933,10.73560047,0.11611383,-0.35686359,0.17683390
1691768706901448,0.18195933,0.53151280,10.70208168,0.15446334,-0.36751622,0.16298546
1691768706903472,0.12928689,0.41180268,10.63025570,0.17470337,-0.37284255,0.17896442
1691768706905449,0.07182605,0.01915361,10.55842972,0.17044231,-0.37603834,0.16831177
1691768706907682,0.30645782,0.45489833,10.50575733,0.19600865,-0.39201730,0.15659387
1691768706909496,0.05267244,-0.09097967,10.34295177,0.16937704,-0.43036684,0.14807175
1691768706911484,0.04309563,0.01915361,10.33816338,0.16405073,-0.46232477,0.13741912
1691768706913593,0.15322891,0.07661445,10.31900978,0.17363811,-0.46339002,0.11504856
1691768706915445,0.06224924,-0.17717093,10.21366405,0.16192019,-0.47084689,0.11717909
1691768706917603,0.25378537,0.19153613,10.01255131,0.15446334,-0.45060685,0.11504856
1691768706919438,0.13886370,-0.11971009,9.92636013,0.15020229,-0.42930156,0.12889700
1691768706921554,0.04788403,-0.07182605,9.79707336,0.15020229,-0.38242993,0.12144014
1691768706923443,0.20590134,0.12928689,9.68215179,0.17789917,-0.35153726,0.10865697
1691768706925422,-0.11492168,-0.09576806,9.80665016,0.19068234,-0.33662355,0.08628642
1691768706927432,-0.08619126,0.12449849,9.59596062,0.20666130,-0.32916671,0.07776430
1691768706929703,0.14844051,0.06224924,9.67257500,0.19068234,-0.34727621,0.09374327
1691768706931481,-0.05267244,-0.08140286,9.55286503,0.17683390,-0.38349521,0.07243798
1691768706933439,0.23942018,0.02394202,9.54807663,0.18216021,-0.40053943,0.09054748
1691768706935411,0.23463176,-0.09097967,9.84016895,0.15978967,-0.44528052,0.06072007
1691768706937463,-0.07182605,-0.30645782,9.61990261,0.17044231,-0.46871635,0.05113269
1691768706939486,0.39264908,-0.09097967,9.61990261,0.18322548,-0.50280482,0.04367584
1691768706941427,0.00957681,-0.13886370,9.81143856,0.18002969,-0.51345748,0.05965481
1691768706943466,0.17717093,0.01436521,9.42836666,0.20772657,-0.51452273,0.04793690
1691768706945434,0.27772740,0.28730419,9.50976944,0.25566345,-0.48789111,0.02130529
1691768706947435,-0.02394202,0.08140286,9.45230865,0.31744879,-0.44315001,0.02982740
1691768706949433,0.23942018,0.30645782,9.21767616,0.34940675,-0.42184472,0.00852212
1691768706951424,0.08619126,0.24420857,9.42836666,0.35899413,-0.39414784,0.00000000
1691768706953451,0.00000000,-0.08619126,9.33738708,0.37177730,-0.36112463,0.00106526
1691768706955341,0.30166942,0.27772740,9.32781029,0.35153726,-0.36005938,0.01384844
1691768706957501,-0.21547815,-0.43574470,9.47146225,0.29507825,-0.34194988,-0.00745685
1691768706959416,0.05267244,-0.07182605,9.39484787,0.25459820,-0.38136467,0.01917476
1691768706961508,0.30166942,0.25857377,9.50976944,0.19174761,-0.37710360,0.02556635
1691768706963440,-0.03830723,-0.49799395,9.45230865,0.14274544,-0.46552056,-0.00958738
1691768706965399,0.21547815,0.06224924,9.41878986,0.13102752,-0.48256478,-0.02769688
1691768706967422,0.29209262,-0.39264908,9.56244183,0.10972223,-0.57417750,-0.04367584
1691768706969449,0.26815060,-0.11971009,9.48103905,0.09480853,-0.61359233,-0.04900216
1691768706971437,0.25378537,-0.03830723,9.34696388,0.08841695,-0.63170183,-0.06285060
1691768706973437,0.25857377,-0.26336220,9.36611748,0.09161274,-0.67537767,-0.02024002
1691768706975400,0.22026655,-0.10055647,9.24640656,0.06285060,-0.67005134,-0.04367584
1691768706977419,0.02394202,-0.14844051,9.26077175,0.08309063,-0.66579026,-0.03728426
1691768706979454,0.02873042,-0.03830723,9.20331097,0.07989483,-0.62957126,-0.02130529
1691768706981440,-0.07182605,-0.04788403,9.11233139,0.10226539,-0.60293967,-0.02130529
1691768706983412,0.01436521,0.09576806,9.25598335,0.10972223,-0.53050166,0.01065264
1691768706985418,-0.04309563,-0.07661445,9.27513695,0.11717909,-0.49747849,0.00000000
1691768706987473,-0.14844051,0.04309563,9.26556015,0.13848437,-0.47084689,-0.00852212
1691768706989473,-0.16759412,0.33039984,9.31344414,0.13422331,-0.42397526,-0.01384844
1691768706991430,-0.08619126,0.14844051,9.27992535,0.14594123,-0.38669100,-0.00745685
1691768706993422,-0.21547815,0.20590134,9.45230865,0.13954964,-0.36538571,-0.00852212
1691768706995411,-0.15322891,0.08140286,9.44752026,0.16724652,-0.33342776,-0.01171791
1691768706997455,-0.02873042,-0.05746084,9.50976944,0.14807175,-0.29507825,-0.00106526
1691768706999434,-0.17238252,-0.01915361,9.70130539,0.12037488,-0.28229508,0.00958738
1691768707001611,-0.02873042,-0.26336220,9.58159542,0.13848437,-0.27270770,0.00426106
1691768707003445,-0.13407530,0.16759412,9.82101536,0.10652644,-0.24181503,0.00852212
1691768707005484,-0.19153613,-0.03830723,9.83538055,0.09693906,-0.25246766,-0.00213053
1691768707007442,0.00478840,-0.07182605,9.73482418,0.07882957,-0.26844662,-0.02024002
1691768707009459,-0.05746084,0.21068975,9.88805294,0.09161274,-0.24288028,-0.04154531
1691768707011456,-0.14844051,-0.26815060,9.94072533,0.10439591,-0.23755397,-0.03408846
1691768707013510,0.08619126,0.05746084,9.86889935,0.12676647,-0.24820662,-0.03621899
1691768707015421,-0.18674773,0.00478840,10.05085850,0.14168017,-0.23648870,-0.01917476
1691768707017501,-0.08140286,-0.43574470,9.95030212,0.14807175,-0.22477080,-0.02130529
1691768707019492,-0.08619126,0.33518824,9.99339771,0.17683390,-0.21837921,-0.01491370
1691768707021429,-0.14844051,0.20111294,9.97903252,0.18109496,-0.19494340,-0.00213053
1691768707023414,-0.02394202,0.29209262,9.74440098,0.28762141,-0.17683390,0.03195793
1691768707025396,-0.20590134,0.71826053,9.96945572,0.47191215,-0.15126754,0.03515373
1691768707027492,-0.25857377,0.60333884,9.92636013,0.58483016,-0.09374327,0.04474111
1691768707029464,0.00000000,0.97204590,9.98860931,0.74994618,-0.01704423,0.04154531
1691768707031504,-0.10534488,0.95289230,9.94551373,0.86179894,0.04900216,-0.00213053
1691768707033448,-0.28730419,0.79966336,9.68215179,0.99282646,0.14381070,-0.03408846
1691768707035461,-0.15801731,0.88106620,9.62947941,1.09615707,0.22477080,0.00319579
1691768707037466,-0.38307226,0.46447513,9.58159542,1.13237607,0.29933929,0.00000000
1691768707039448,-0.21547815,0.41659111,9.35654068,1.04289389,0.36005938,0.01065264
1691768707041417,-0.33518824,0.04309563,9.48582745,0.96726012,0.37816888,-0.03089267
1691768707043420,-0.17238252,0.02873042,9.49061584,0.81918836,0.40266997,0.04793690
1691768707045438,-0.10534488,-0.26336220,9.67257500,0.68922609,0.39201730,0.01917476
1691768707047469,-0.13886370,-0.53630120,9.73003578,0.56885123,0.37816888,0.01917476
1691768707049441,0.19153613,-0.51714754,9.68694019,0.41119206,0.32916671,-0.02769688
1691768707051423,-0.07661445,-0.77093297,9.81143856,0.27057716,0.30679616,-0.05752428
1691768707053478,0.42616791,-0.60333884,9.76355457,0.18322548,0.21198763,-0.07669904
1691768707055453,0.13407530,-0.71826053,9.96466732,0.06498113,0.18961707,-0.11824435
1691768707057455,0.18674773,-0.56503159,9.84016895,-0.00426106,0.13528858,-0.09480853
1691768707059420,0.65122288,-0.26336220,9.75397778,-0.01491370,0.09800433,-0.11717909
1691768707061445,0.11971009,-0.57939678,9.85932255,-0.05858954,0.06498113,-0.11185277
1691768707063522,0.48841715,-0.20111294,9.71567059,-0.06285060,0.04900216,-0.08735169
1691768707065430,0.15322891,-0.34476504,9.92157173,-0.10865697,0.04474111,-0.06817693
1691768707067448,0.16759412,-0.42137951,9.80186176,-0.11291803,0.03195793,-0.07989483
1691768707069456,0.17238252,-0.21547815,9.74440098,-0.12037488,0.01917476,-0.05432849
1691768707071488,0.01915361,-0.36391866,9.97903252,-0.15659387,0.03408846,-0.08628642
1691768707073437,0.09576806,0.10534488,9.88805294,-0.17150757,0.01384844,-0.07669904
1691768707075419,0.01915361,-0.19153613,10.01733971,-0.21198763,0.01810949,-0.09054748
1691768707077449,0.12928689,-0.11492168,9.92636013,-0.22903186,0.04154531,-0.09161274
1691768707079454,0.10534488,-0.12449849,10.01255131,-0.22690132,0.02663161,-0.10013486
1691768707081421,0.08140286,-0.03351882,10.13226128,-0.25885925,0.04900216,-0.08309063
1691768707083427,0.01915361,-0.19632454,9.99339771,-0.27803403,0.03728426,-0.09054748
1691768707085411,-0.04309563,-0.07182605,10.11789608,-0.30146983,0.02982740,-0.07243798
1691768707087454,0.16280572,0.03351882,10.08437729,-0.30999196,0.00852212,-0.07563377
1691768707089427,0.03830723,-0.13407530,10.10831928,-0.32384038,0.00958738,-0.06817693
1691768707091421,0.06224924,-0.11013328,10.18972206,-0.34514567,-0.00532632,-0.06178534
1691768707093426,0.28730419,-0.00478840,10.09874249,-0.35153726,-0.01597897,-0.04900216
1691768707095428,-0.03830723,-0.23463176,10.22802925,-0.37284255,-0.00426106,-0.04367584
1691768707097436,0.35913026,0.11492168,10.23760605,-0.39521310,-0.00958738,-0.05539375
1691768707099430,0.18674773,0.01436521,10.30464458,-0.40586576,-0.01065264,-0.05539375
1691768707101422,-0.01915361,-0.04788403,10.29985619,-0.40586576,-0.00213053,-0.06072007
1691768707103427,0.35434186,0.23463176,10.24239445,-0.40799627,0.00532632,-0.06498113
1691768707105426,-0.08140286,-0.11971009,10.35731697,-0.43036684,-0.00213053,-0.05858954
1691768707107549,0.12449849,0.03830723,10.25197124,-0.43675843,0.00852212,-0.04580637
1691768707109429,0.00478840,0.02873042,10.38125896,-0.42823631,0.00213053,-0.04687164
1691768707111440,-0.01436521,-0.11013328,10.38604736,-0.42290998,0.00213053,-0.04580637
1691768707113480,0.26815060,0.16759412,10.31422138,-0.43782368,0.01491370,-0.04687164
1691768707115418,-0.08619126,-0.08140286,10.42914295,-0.44847631,-0.00426106,-0.05858954
1691768707117427,0.12449849,-0.09576806,10.36210537,-0.47936898,-0.03728426,-0.05219796
1691768707119435,0.29688102,-0.05746084,10.60152531,-0.54754591,-0.06817693,-0.03408846
1691768707121479,-0.02394202,-0.38786069,10.65419769,-0.62850600,-0.12250541,-0.01171791
1691768707123453,0.45968673,-0.19153613,10.67335129,-0.69561768,-0.16831177,-0.02556635
1691768707125480,0.12928689,-0.34476504,11.02290440,-0.73609775,-0.19920444,-0.01491370
1691768707127436,0.58897364,-0.19153613,10.91755962,-0.81279677,-0.23329291,-0.01917476
1691768707129480,0.39264908,-0.14844051,11.10909557,-0.81705785,-0.24927188,-0.00958738
1691768707131436,0.06703765,-0.30645782,11.11867237,-0.81386203,-0.25672874,-0.01491370
1691768707133432,0.55066639,-0.08140286,10.93671322,-0.79255676,-0.24394555,-0.02982740
1691768707135484,0.04309563,0.01915361,11.21922874,-0.76699042,-0.25566345,-0.00958738
1691768707137484,0.24420857,-0.11492168,10.89361763,-0.71053135,-0.22477080,-0.00106526
1691768707139511,0.18195933,0.22026655,10.95586681,-0.67005134,-0.21624868,0.01065264
1691768707141439,0.03830723,0.27293900,10.90319443,-0.61465758,-0.20666130,-0.00319579
1691768707143418,0.26815060,0.33997664,10.67813969,-0.52091432,-0.21411815,0.00213053
1691768707145427,-0.09097967,0.62249243,10.85531044,-0.46552056,-0.21731395,0.00106526
1691768707147439,0.05746084,0.37828386,10.51533413,-0.40053943,-0.22157501,0.00426106
1691768707149448,0.07182605,0.60333884,10.56800652,-0.32703617,-0.22796659,0.02982740
1691768707151424,-0.04788403,0.53630120,10.53448772,-0.27483824,-0.23009712,0.04687164
1691768707153442,0.30166942,0.45010993,10.31900978,-0.26418558,-0.23222765,0.05113269
1691768707155432,0.13886370,0.67995328,10.43871975,-0.22050974,-0.23435818,0.04793690
1691768707157552,0.17717093,0.27293900,10.22324085,-0.18109496,-0.24820662,0.04900216
1691768707159426,0.07661445,0.63685763,10.30464458,-0.15659387,-0.24501082,0.03515373
1691768707161420,0.09097967,0.37349546,10.29985619,-0.13635385,-0.24074976,0.03728426
1691768707163492,0.20590134,0.14365210,10.07958889,-0.13528858,-0.23861924,0.03941479
1691768707165405,0.12449849,0.43095630,10.18014526,-0.09587380,-0.22370553,0.03302320
1691768707167429,0.01436521,0.08619126,10.05085850,-0.07776430,-0.22264026,0.04048005
1691768707169456,0.03830723,0.31124622,9.98860931,-0.07030746,-0.19813919,0.06072007
1691768707171487,-0.09097967,0.33518824,9.98860931,-0.05006743,-0.18216021,0.07137272
1691768707173460,-0.00478840,0.22984336,9.81143856,-0.05219796,-0.17044231,0.06498113
1691768707175402,-0.04309563,0.52193600,9.89762974,-0.02450108,-0.14807175,0.06817693
1691768707177448,0.02873042,0.28251579,9.80665016,-0.02663161,-0.13741912,0.06285060
1691768707179442,0.08140286,0.20590134,9.80186176,0.01065264,-0.12250541,0.05752428
1691768707181453,0.00957681,0.26815060,9.76834297,0.02130529,-0.11504856,0.05432849
1691768707183419,0.13886370,0.08619126,9.73961258,0.04687164,-0.11398330,0.06391586
1691768707185414,-0.03351882,0.07661445,9.85453415,0.07456851,-0.12144014,0.07350325
1691768707187484,0.10534488,0.19632454,9.78749657,0.09161274,-0.13635385,0.07776430
1691768707189471,0.10055647,0.14365210,9.77791977,0.10333065,-0.14807175,0.07669904
1691768707191424,-0.10534488,0.26336220,9.81143856,0.10226539,-0.15765914,0.07243798
1691768707193430,0.20590134,0.31124622,9.67736340,0.11185277,-0.15978967,0.06711166
1691768707195429,-0.04309563,0.09097967,9.78270817,0.12783173,-0.14061491,0.05965481
1691768707197620,-0.02873042,0.29209262,9.67736340,0.14274544,-0.12037488,0.06072007
1691768707199447,-0.05267244,0.21547815,9.62947941,0.17896442,-0.06817693,0.05645901
1691768707201416,-0.17238252,0.24899697,9.66299820,0.21837921,-0.03302320,0.05006743
1691768707203455,0.09576806,0.49799395,9.50019264,0.28016454,0.00958738,0.05219796
1691768707205407,-0.06224924,0.45968673,9.54807663,0.30786142,0.04687164,0.04793690
1691768707207462,-0.15801731,0.46447513,9.60553741,0.35153726,0.08522116,0.05752428
1691768707209426,-0.04309563,0.35434186,9.43315506,0.37071201,0.11398330,0.05326322
1691768707211459,-0.13407530,0.23942018,9.52413464,0.36112463,0.13635385,0.04900216
1691768707213431,-0.18195933,0.15801731,9.58159542,0.35686359,0.12570120,0.05645901
1691768707215425,-0.06703765,0.09576806,9.39484787,0.33875409,0.13954964,0.04154531
1691768707217434,-0.11492168,0.00000000,9.44273186,0.32703617,0.13848437,0.05219796
1691768707219457,-0.14365210,-0.00478840,9.40442467,0.29827404,0.11504856,0.03302320
1691768707221466,0.12449849,0.09097967,9.31344414,0.25566345,0.09693906,0.05006743
1691768707223490,-0.15801731,-0.07661445,9.50019264,0.24927188,0.08735169,0.03621899
1691768707225414,0.20590134,-0.00957681,9.36611748,0.22050974,0.08948221,0.01597897
1691768707227429,0.24899697,-0.10534488,9.38527107,0.18109496,0.05858954,0.00639159
1691768707229477,-0.17238252,-0.19153613,9.51934624,0.14487596,0.04687164,0.00745685
1691768707231469,0.32561144,-0.11492168,9.34696388,0.13102752,0.04367584,-0.00426106
1691768707233445,0.00000000,-0.18674773,9.55765343,0.12144014,0.03089267,-0.02024002
1691768707235409,-0.01436521,-0.00957681,9.53371143,0.09587380,0.03302320,0.00532632
1691768707237535,0.22984336,-0.13886370,9.51934624,0.09374327,0.01704423,0.02024002
1691768707239479,0.08140286,0.14365210,9.62469101,0.04261058,0.02556635,0.01597897
1691768707241421,0.11492168,0.05746084,9.60074902,0.04261058,0.01810949,0.02876214
1691768707243428,0.06224924,-0.19153613,9.78270817,0.02343582,-0.00426106,0.03515373
1691768707245409,0.10055647,0.01915361,9.78270817,0.00213053,-0.02556635,0.03195793
1691768707247476,0.32082301,-0.08140286,9.91678333,-0.06924219,-0.05965481,0.02769688
1691768707249424,0.13886370,-0.18195933,10.04607010,-0.12783173,-0.07669904,0.02343582
1691768707251430,0.25378537,-0.10055647,9.98860931,-0.17257284,-0.11291803,0.00745685
1691768707253486,0.07661445,-0.26336220,10.17535686,-0.20666130,-0.10972223,-0.00319579
1691768707255489,0.22984336,-0.00957681,10.08916569,-0.24181503,-0.11717909,0.00745685
1691768707257473,0.06224924,-0.00957681,10.12747288,-0.21518342,-0.10759171,0.02343582
1691768707259421,0.04788403,0.09576806,10.06522369,-0.12570120,-0.08735169,0.07989483
1691768707261464,0.09576806,0.56981999,9.81143856,-0.01491370,-0.02343582,0.02237055
1691768707263432,0.00000000,0.49320555,9.95987892,0.06604639,-0.02024002,0.04580637
1691768707265418,-0.12928689,0.41180268,9.86889935,0.15978967,0.03302320,0.03728426
1691768707267466,-0.09097967,0.58897364,9.70609379,0.20133498,0.06604639,0.01810949
1691768707269462,-0.13407530,0.46447513,9.73482418,0.24820662,0.08628642,0.01384844
1691768707271511,-0.22984336,0.51714754,9.71567059,0.28122982,0.10546118,0.00532632
1691768707273470,-0.09097967,0.50757074,9.61990261,0.28016454,0.13848437,0.00106526
1691768707275462,-0.13407530,0.31603462,9.64863300,0.27164242,0.13528858,-0.01810949
1691768707277536,0.00478840,0.45489833,9.65342140,0.26418558,0.12676647,0.04900216
1691768707279494,0.01436521,0.11971009,9.61511421,0.22903186,0.14168017,-0.01065264
1691768707281429,0.00957681,-0.00478840,9.52413464,0.21198763,0.13422331,0.01278317
1691768707283442,0.05267244,0.15322891,9.56244183,0.18322548,0.11824435,0.00106526
1691768707285455,-0.08140286,-0.13407530,9.58638382,0.16831177,0.11504856,-0.00426106
1691768707287462,-0.00957681,0.01436521,9.50498104,0.14594123,0.10652644,-0.00958738
1691768707289463,-0.00957681,-0.07182605,9.55286503,0.12676647,0.11398330,-0.00426106
1691768707291449,-0.01436521,-0.26336220,9.48103905,0.08522116,0.11185277,-0.02024002
1691768707293446,0.06703765,0.02394202,9.50976944,0.06711166,0.10652644,-0.03195793
1691768707295439,0.01436521,-0.22505496,9.59596062,0.06924219,0.09267800,-0.00106526
1691768707297523,0.14844051,-0.08140286,9.51455784,0.05645901,0.10652644,-0.01810949
1691768707299537,0.17238252,0.11492168,9.57201862,0.06391586,0.10333065,-0.03195793
1691768707301446,0.10534488,-0.15801731,9.62469101,0.08202536,0.08096009,-0.01171791
1691768707303488,0.12928689,0.12928689,9.57201862,0.08096009,0.08415589,-0.01917476
1691768707305436,-0.09097967,-0.02873042,9.71088219,0.07456851,0.08309063,-0.01278317
1691768707307443,-0.04309563,-0.12928689,9.63905621,0.10013486,0.07989483,-0.00745685
1691768707309438,0.04788403,0.14365210,9.61032581,0.11185277,0.07456851,-0.01491370
1691768707311461,-0.10534488,-0.13407530,9.75397778,0.10652644,0.07563377,-0.01491370
1691768707313474,0.19153613,0.00000000,9.65342140,0.10226539,0.09267800,-0.02450108
1691768707315428,0.12928689,0.03351882,9.80665016,0.10546118,0.10439591,0.00106526
1691768707317432,-0.02873042,-0.18195933,9.79707336,0.07989483,0.10226539,-0.01491370
1691768707319475,0.19153613,0.19153613,9.72524738,0.05752428,0.09161274,-0.00958738
1691768707321469,-0.22026655,-0.01915361,9.96466732,0.05219796,0.09693906,-0.02769688
1691768707323444,0.00478840,-0.03830723,9.71088219,0.05858954,0.09906960,-0.02343582
1691768707325424,0.12928689,0.25378537,9.83538055,0.06498113,0.08096009,-0.02769688
1691768707327439,-0.19632454,-0.10534488,9.95509052,0.06711166,0.08202536,-0.02556635
1691768707329463,0.27293900,0.09576806,9.70609379,0.07882957,0.08202536,-0.02556635
1691768707331497,0.04788403,0.16280572,9.96945572,0.08735169,0.06817693,-0.02556635
1691768707333449,0.01915361,0.02394202,9.76834297,0.10865697,0.07030746,-0.00639159
1691768707335495,0.23942018,0.37349546,9.82101536,0.10226539,0.06817693,0.01171791
1691768707337490,-0.09576806,0.03351882,9.94072533,0.10120012,0.07456851,-0.00106526
1691768707339461,0.21068975,0.00478840,9.61511421,0.09161274,0.08202536,-0.01278317
1691768707341444,-0.00478840,0.10055647,9.89762974,0.05219796,0.08309063,-0.00745685
1691768707343489,-0.09576806,-0.20590134,9.83059216,0.00426106,0.06604639,0.00319579
1691768707345422,0.23463176,-0.10534488,9.86411095,-0.04793690,0.06498113,0.00639159
1691768707347437,-0.12928689,-0.27293900,10.23281765,-0.07989483,0.05219796,0.01278317
1691768707349431,0.30645782,-0.25378537,9.99818611,-0.14913702,0.02450108,0.00639159
1691768707351429,0.07182605,-0.13407530,10.31900978,-0.19281286,0.01810949,0.01065264
1691768707353451,0.11492168,-0.22026655,10.33816338,-0.22477080,0.00213053,0.02450108
1691768707355434,0.40701428,-0.15322891,10.25675964,-0.25779399,0.00000000,0.02769688
1691768707357458,-0.07182605,-0.05746084,10.51533413,-0.26631612,-0.03302320,0.03728426
1691768707359433,0.25378537,-0.06703765,10.33816338,-0.26205504,-0.03621899,0.02769688
1691768707361487,0.10534488,-0.19153613,10.40520096,-0.25033715,-0.06178534,0.01278317
1691768707363532,0.22505496,-0.00957681,10.40041256,-0.26098979,-0.05752428,0.02663161
1691768707365408,0.27293900,-0.16280572,10.38125896,-0.23116238,-0.08841695,0.04367584
1691768707367431,0.08140286,0.12928689,10.41956615,-0.20985709,-0.09161274,0.02663161
1691768707369448,0.24899697,0.38307226,10.19929886,-0.18961707,-0.08096009,0.04367584
1691768707371563,-0.02394202,0.07661445,10.28070164,-0.12463594,-0.07456851,0.07456851
1691768707373437,0.06703765,0.47884035,10.18014526,-0.07669904,-0.06178534,0.06711166
1691768707375435,0.16280572,0.17717093,10.10353088,-0.02556635,-0.04367584,0.07456851
1691768707377447,-0.01915361,0.24899697,10.20887566,0.02130529,-0.01491370,0.06604639
1691768707379462,0.15322891,0.49320555,10.00297451,0.06924219,-0.01704423,0.06711166
1691768707381456,-0.05267244,0.09576806,10.07001209,0.10439591,-0.00639159,0.05965481
1691768707383427,-0.12928689,0.36391866,10.03170490,0.11611383,-0.01171791,0.06924219
1691768707385410,-0.00478840,0.15322891,9.93114853,0.14487596,0.00213053,0.04367584
1691768707387474,-0.15801731,0.36870706,10.00297451,0.17044231,0.01278317,0.05432849
1691768707389469,0.02394202,0.75177932,9.80665016,0.22370553,0.02556635,0.04474111
1691768707391427,-0.04309563,0.41659111,9.72045898,0.31105721,0.07350325,0.06391586
1691768707393433,-0.16280572,0.77572137,9.67257500,0.41332260,0.14700650,0.08202536
1691768707395452,-0.25857377,0.50757074,9.50019264,0.52837116,0.22157501,0.06178534
1691768707397607,-0.22505496,0.75177932,9.48582745,0.64661551,0.25672874,0.02130529
1691768707399442,-0.34476504,0.78050977,9.38048267,0.71692294,0.31212249,0.03302320
1691768707401461,-0.38307226,0.39264908,9.27992535,0.77231669,0.33236250,0.01278317
1691768707403463,-0.02394202,0.95768070,9.18894577,0.79468727,0.35579833,0.05219796
1691768707405423,-0.26815060,0.36870706,9.15542698,0.79362202,0.33662355,0.04580637
1691768707407447,0.00000000,0.43095630,8.89685345,0.73077142,0.34940675,0.12357067
1691768707409437,0.22026655,0.28730419,9.03092861,0.70307451,0.31425300,0.04367584
1691768707411486,0.02394202,-0.27293900,8.98304462,0.60720074,0.28442562,0.07350325
1691768707413498,0.16280572,0.02873042,8.96389103,0.46871635,0.25779399,0.02450108
1691768707415517,0.09576806,-0.47884035,9.09317780,0.36645097,0.23435818,0.02556635
1691768707417436,0.28251579,-0.41659111,9.01656342,0.26631612,0.16192019,0.01384844
1691768707419561,0.08619126,-0.44053310,9.12190819,0.20666130,0.12250541,-0.03834952
1691768707421461,0.26815060,-0.40701428,9.23204136,0.15552860,0.08948221,-0.02343582
1691768707423454,0.38307226,-0.36870706,9.18894577,0.09374327,0.04687164,-0.04367584
1691768707425410,-0.00478840,-0.51235914,9.12669659,0.07030746,0.00106526,-0.02237055
1691768707427457,0.37349546,-0.13407530,9.16500378,0.04900216,-0.01278317,-0.04154531
1691768707429603,-0.02873042,-0.55066639,9.36611748,0.03941479,-0.02982740,-0.01597897
1691768707431465,0.28251579,-0.18674773,9.22725296,-0.00532632,-0.03302320,-0.02876214
1691768707433536,0.25378537,-0.23463176,9.36611748,0.01384844,-0.04261058,-0.02237055
1691768707435440,-0.00957681,-0.55066639,9.47625065,0.02982740,-0.03621899,-0.03408846
1691768707437551,0.42137951,0.14365210,9.39484787,-0.00852212,-0.02663161,-0.03621899
1691768707439501,-0.06224924,-0.21068975,9.64384460,0.01384844,-0.00745685,-0.03515373
1691768707441534,0.05267244,0.09576806,9.47146225,0.01704423,0.00532632,-0.02876214
1691768707443454,0.22505496,0.27293900,9.61032581,0.00958738,0.01384844,-0.02343582
1691768707445426,-0.23463176,-0.13886370,9.70609379,-0.01491370,0.01278317,-0.02343582
1691768707447478,0.10055647,0.21547815,9.49540424,-0.01384844,0.00852212,-0.00532632
1691768707449445,-0.03351882,-0.12928689,9.80665016,-0.03089267,0.02556635,-0.00852212
1691768707451525,-0.10055647,-0.04788403,9.65820980,-0.05858954,0.00532632,0.00000000
1691768707453436,0.19153613,0.03351882,9.75397778,-0.10439591,-0.01065264,0.00319579
1691768707455540,-0.18195933,-0.34955344,10.02691650,-0.13422331,-0.01171791,-0.00426106
1691768707457480,0.03830723,0.11492168,9.75876617,-0.13315806,-0.00532632,-0.01704423
1691768707459437,0.04788403,0.02873042,10.04607010,-0.14700650,-0.01917476,0.00319579
1691768707461433,0.00478840,0.01436521,9.95030212,-0.14274544,-0.02343582,0.00319579
1691768707463516,0.25378537,0.22984336,9.86889935,-0.13954964,-0.01171791,-0.00426106
1691768707465422,0.07182605,0.01915361,10.13226128,-0.13848437,0.00532632,-0.01278317
1691768707467441,0.08140286,0.14365210,9.93114853,-0.14913702,0.02024002,-0.01597897
1691768707469447,-0.03351882,0.02394202,10.14662647,-0.16831177,0.02343582,-0.02130529
1691768707471489,-0.07661445,-0.03830723,10.21845245,-0.16831177,0.03089267,-0.03302320
1691768707473546,0.04788403,-0.01915361,10.28549004,-0.19281286,0.04474111,-0.01384844
1691768707475416,-0.06703765,-0.17238252,10.48181534,-0.23116238,0.04793690,-0.02343582
1691768707477513,0.15322891,-0.05267244,10.41956615,-0.27164242,0.04367584,-0.00639159
1691768707479505,0.03351882,-0.17717093,10.62546730,-0.28975192,0.03834952,-0.02130529
1691768707481466,0.17238252,-0.07661445,10.59194851,-0.30573088,0.04154531,-0.01810949
1691768707483442,0.09576806,0.10534488,10.54885292,-0.30892667,0.02556635,-0.01917476
1691768707485411,0.07182605,-0.02394202,10.54885292,-0.27164242,-0.00532632,0.01278317
1691768707487481,0.24899697,0.16280572,10.31422138,-0.21944447,-0.01065264,-0.02024002
1691768707489454,0.12928689,0.14365210,10.36689377,-0.18322548,-0.02556635,-0.01704423
1691768707491451,0.33039984,0.19153613,10.24718285,-0.10972223,-0.05006743,-0.00106526
1691768707493394,0.16759412,0.38307226,10.20887566,-0.08735169,-0.05752428,-0.01384844
1691768707495444,0.09097967,0.27293900,10.11789608,-0.03089267,-0.06178534,-0.03941479
1691768707497464,0.12928689,0.30645782,10.03649330,-0.00532632,-0.07563377,-0.04261058
1691768707499452,-0.03351882,0.21068975,10.15620327,-0.01065264,-0.04261058,-0.01917476
1691768707501435,0.12928689,0.12928689,9.99339771,-0.01917476,-0.04474111,-0.04474111
1691768707503474,0.12928689,0.22505496,10.06522369,-0.00106526,-0.04900216,-0.03515373
1691768707505457,-0.01915361,0.08140286,10.06522369,-0.03089267,-0.02556635,-0.00319579
1691768707507461,0.26815060,0.12449849,9.89284134,-0.06178534,-0.02343582,-0.01171791
1691768707509431,-0.09097967,-0.03351882,10.17056847,-0.07243798,-0.02024002,0.00639159
1691768707511466,-0.02873042,-0.09097967,9.97903252,-0.10439591,-0.02130529,0.00319579
1691768707513634,0.07182605,-0.00957681,10.10353088,-0.12463594,-0.03089267,0.00532632
1691768707515425,-0.37349546,-0.11971009,10.21845245,-0.14274544,-0.04474111,-0.03195793
1691768707517442,0.33518824,-0.09576806,9.99818611,-0.14807175,-0.04154531,-0.01065264
1691768707519446,-0.08140286,-0.03351882,10.33337498,-0.14487596,-0.05006743,-0.02982740
1691768707521515,0.18195933,0.00478840,10.12268448,-0.12889700,-0.06604639,-0.00319579
1691768707523458,0.22984336,0.10534488,10.29027843,-0.13209279,-0.06285060,-0.00958738
1691768707525412,-0.18674773,0.22026655,10.33337498,-0.13528858,-0.06498113,0.01384844
1691768707527444,0.35434186,0.05746084,10.00776291,-0.12144014,-0.06072007,0.00958738
1691768707529486,-0.18674773,0.07661445,10.46266174,-0.12676647,-0.06498113,0.00639159
1691768707531473,0.09097967,0.06224924,10.15141487,-0.12570120,-0.05858954,0.02663161
1691768707533491,0.13886370,0.00478840,10.35731697,-0.13315806,-0.05965481,0.02130529
1691768707535434,-0.15801731,0.30166942,10.48660374,-0.13528858,-0.05965481,0.00000000
1691768707537489,0.26336220,0.08140286,10.15141487,-0.14913702,-0.06391586,-0.02024002
1691768707539460,-0.13407530,0.18674773,10.52969933,-0.16511598,-0.05965481,-0.00958738
1691768707541437,0.11971009,0.14365210,10.20408726,-0.15978967,-0.06924219,-0.01065264
1691768707543444,0.09097967,-0.08619126,10.28070164,-0.13954964,-0.06711166,-0.00532632
1691768707545454,-0.11492168,0.32082301,10.44350815,-0.14594123,-0.06178534,-0.00639159
1691768707547460,0.19153613,-0.05267244,10.18493366,-0.16298546,-0.05219796,0.01171791
1691768707549465,-0.10534488,0.11971009,10.47223854,-0.16298546,-0.03408846,0.00639159
1691768707551439,0.09097967,0.21547815,10.26633644,-0.15446334,-0.02982740,-0.00426106
1691768707553507,0.05746084,-0.15322891,10.40998936,-0.17576863,-0.02556635,-0.00213053
1691768707555452,0.02873042,0.28730419,10.53448772,-0.19600865,-0.01704423,0.00745685
1691768707557451,0.08619126,-0.23942018,10.42914295,-0.22157501,-0.01491370,0.02237055
1691768707559436,-0.13886370,-0.09576806,10.60152531,-0.24288028,-0.02130529,0.01065264
1691768707561570,0.08140286,0.18195933,10.53448772,-0.25672874,-0.02982740,0.00000000
1691768707563498,-0.00957681,-0.26815060,10.50096893,-0.23116238,-0.04474111,0.00319579
1691768707565424,0.22026655,0.41180268,10.40520096,-0.21944447,-0.06178534,0.02556635
1691768707567441,0.06224924,0.11492168,10.18972206,-0.16298546,-0.07030746,0.00532632
1691768707569446,-0.01436521,0.22984336,10.17535686,-0.12037488,-0.07882957,0.00852212
1691768707571612,0.15322891,0.58897364,10.06522369,-0.09800433,-0.08735169,0.01384844
1691768707573458,-0.02873042,-0.02394202,10.08916569,-0.05326322,-0.07989483,0.00745685
1691768707575426,0.19153613,0.56981999,10.04607010,-0.00852212,-0.07776430,0.01384844
1691768707577481,0.10055647,0.20590134,10.01733971,-0.00639159,-0.07243798,0.01597897
1691768707579534,-0.00478840,0.10055647,9.92636013,-0.00213053,-0.06817693,0.00532632
1691768707581466,0.12928689,0.38307226,9.83538055,0.04261058,-0.06498113,0.00426106
1691768707583461,-0.13407530,-0.02873042,9.87847614,0.04474111,-0.05965481,0.02130529
1691768707585430,0.08140286,0.41180268,9.79228497,0.05539375,-0.06178534,0.00745685
1691768707587518,0.03351882,0.11013328,9.76355457,0.09693906,-0.04580637,0.00639159
1691768707589582,-0.05267244,0.16280572,9.78749657,0.10865697,-0.02663161,0.00106526
1691768707591437,0.22984336,0.41180268,9.70609379,0.11824435,-0.01704423,-0.00745685
1691768707593439,-0.11971009,-0.01436521,9.85453415,0.10652644,-0.00213053,0.00745685
1691768707595445,-0.10055647,0.25378537,9.77791977,0.10972223,0.01810949,0.00745685
1691768707597480,0.06224924,0.13886370,9.73482418,0.12250541,0.03302320,0.01491370
1691768707599448,-0.29688102,0.11971009,9.88805294,0.13528858,0.03302320,0.01810949
1691768707601445,0.06703765,0.11971009,9.70609379,0.12463594,0.03834952,0.02982740
1691768707603451,0.00478840,-0.15322891,9.89284134,0.12037488,0.03302320,0.04048005
1691768707605503,-0.21547815,0.02873042,9.90241814,0.12463594,0.02237055,0.05539375
1691768707607460,0.26336220,0.00957681,9.88805294,0.07563377,0.01810949,0.05326322
1691768707609434,-0.19632454,0.00957681,10.07958889,0.06072007,0.01171791,0.04580637
1691768707611462,0.12449849,0.08619126,9.87368774,0.05752428,0.00745685,0.03728426
1691768707613491,0.21068975,0.02873042,9.98382092,0.05113269,-0.00319579,0.03515373
1691768707615455,-0.22505496,0.12928689,9.99339771,0.05326322,-0.01171791,0.02343582
1691768707617449,0.33997664,-0.00478840,9.83059216,0.05326322,-0.01171791,0.03408846
1691768707619464,-0.13407530,-0.04788403,10.08437729,0.04687164,-0.01171791,0.01810949
1691768707621513,0.06703765,0.02394202,9.93114853,0.01278317,-0.01917476,0.01704423
1691768707623445,0.10055647,-0.15322891,10.06043530,0.00106526,-0.02982740,0.00958738
1691768707625416,-0.20590134,0.11971009,10.09395409,0.01704423,-0.02556635,0.00213053
1691768707627446,0.35913026,0.04788403,9.94551373,0.02343582,-0.02556635,0.01384844
1691768707629451,-0.00957681,-0.05267244,10.18493366,0.02130529,-0.03408846,0.00958738
1691768707631472,0.11971009,0.11013328,9.98382092,-0.01065264,-0.03302320,0.00745685
1691768707633442,0.09576806,-0.15322891,10.10353088,-0.00532632,-0.03089267,0.00213053
1691768707635438,-0.19153613,0.15322891,10.19451046,0.00000000,-0.02130529,-0.00852212
1691768707637511,0.20590134,0.00478840,10.02212811,0.01278317,-0.02556635,-0.01065264
1691768707639472,-0.09576806,-0.17238252,10.23760605,0.00213053,-0.02343582,-0.00532632
1691768707641437,0.14844051,0.19153613,10.07480049,-0.00106526,-0.01384844,0.00319579
1691768707643447,0.11013328,-0.17717093,10.17535686,0.01278317,-0.00745685,0.00639159
1691768707645436,-0.05746084,0.33039984,10.17056847,0.01065264,0.00000000,0.00213053
1691768707647483,0.19632454,0.22984336,10.00297451,0.01171791,-0.00426106,0.00745685
1691768707649408,-0.17238252,-0.15801731,10.23281765,0.01491370,0.00319579,0.00106526
1691768707651444,0.13886370,0.31603462,10.08916569,0.03302320,0.00319579,0.00532632
1691768707653432,-0.05746084,-0.25378537,10.23760605,0.04793690,0.00639159,0.00000000
1691768707655460,-0.04788403,0.21068975,10.22324085,0.05645901,0.00319579,0.00958738
1691768707657451,0.25857377,0.24420857,10.12747288,0.05113269,0.00745685,0.00213053
1691768707659427,-0.10055647,-0.22026655,10.29506683,0.04261058,0.00958738,0.00426106
1691768707661451,0.25857377,0.37828386,10.11789608,0.03408846,0.01278317,0.00958738
1691768707663665,-0.14365210,-0.15801731,10.21366405,0.00958738,0.02024002,0.01065264
1691768707665430,-0.13407530,0.09097967,10.10353088,-0.01278317,0.02769688,0.00106526
1691768707667456,0.10534488,0.12449849,10.05085850,-0.01171791,0.03834952,0.00426106
1691768707669459,-0.25857377,-0.35434186,10.13226128,-0.01704423,0.05539375,0.00958738
1691768707671515,0.22026655,0.30645782,9.89762974,-0.01491370,0.06604639,0.00426106
1691768707673471,-0.14365210,-0.03351882,10.05085850,0.01171791,0.06498113,0.00000000
1691768707675421,-0.16280572,0.15801731,9.91199493,0.01597897,0.07563377,-0.00532632
1691768707677475,0.19153613,0.37828386,9.88326454,0.00958738,0.07243798,-0.00426106
1691768707679495,-0.26815060,-0.18195933,10.00297451,0.01917476,0.06391586,0.00106526
1691768707681571,0.11971009,0.21547815,9.73003578,0.02343582,0.05752428,0.00106526
1691768707683455,-0.10055647,-0.01915361,9.93593693,0.01810949,0.06391586,0.00000000
1691768707685428,-0.22984336,0.06703765,9.81622696,0.03834952,0.05858954,0.01491370
1691768707687523,0.14844051,0.33518824,9.78749657,0.05219796,0.07030746,0.01065264
1691768707689474,-0.15322891,-0.04309563,9.95987892,0.04367584,0.08309063,-0.00106526
1691768707691457,0.15801731,0.30166942,9.69651699,0.05006743,0.08202536,-0.00639159
1691768707693445,0.07661445,0.05746084,9.93593693,0.05539375,0.08628642,0.01810949
1691768707695426,-0.24899697,0.05746084,9.85453415,0.05432849,0.07776430,0.00852212
1691768707697466,0.13886370,0.28251579,9.73482418,0.06072007,0.06711166,0.01810949
1691768707699458,-0.18195933,-0.11492168,10.00297451,0.06285060,0.05432849,0.01491370
1691768707701439,0.08140286,0.07661445,9.73961258,0.07137272,0.03834952,0.00000000
1691768707703464,0.21068975,-0.02873042,9.93593693,0.07243798,0.02663161,-0.00958738
1691768707705488,-0.04788403,0.04788403,9.96945572,0.07350325,0.01491370,0.00426106
1691768707707444,0.31603462,0.22505496,9.84974575,0.05645901,0.01597897,-0.00958738
1691768707709446,-0.03830723,-0.06224924,10.12268448,0.04580637,0.01065264,-0.02130529
1691768707711442,-0.04788403,-0.14365210,10.05085850,0.02876214,0.01491370,-0.01384844
1691768707713510,0.29688102,0.00478840,10.00297451,-0.00426106,0.02876214,-0.01278317
1691768707715428,-0.03830723,-0.13886370,10.22802925,-0.02556635,0.03089267,-0.02450108
1691768707717441,0.15801731,0.11492168,10.01255131,-0.03408846,0.03302320,-0.01065264
1691768707719437,0.07661445,-0.05267244,10.02212811,-0.00639159,0.01810949,0.00958738
1691768707721618,-0.02873042,0.03351882,9.87847614,0.02450108,0.03195793,-0.00213053
1691768707723473,0.08140286,0.09576806,9.80665016,0.07137272,0.01065264,-0.00532632
1691768707725418,-0.14365210,-0.05746084,9.84495735,0.10865697,0.01597897,-0.00319579
1691768707727453,0.10534488,0.35434186,9.56723022,0.14700650,0.02450108,-0.00213053
1691768707729592,0.10534488,0.09097967,9.66299820,0.19494340,0.02663161,0.00319579
1691768707731481,0.02873042,0.43095630,9.56723022,0.22903186,0.02982740,0.00426106
1691768707733443,0.22026655,0.53630120,9.53849983,0.22583605,0.03089267,-0.01384844
1691768707735441,-0.16280572,0.06703765,9.71088219,0.19600865,0.05006743,-0.01917476
1691768707737511,0.03830723,0.44532153,9.49061584,0.19707392,0.03941479,0.00532632
1691768707739472,0.02394202,0.09097967,9.59117222,0.20879182,0.04793690,0.00426106
1691768707741445,-0.22984336,-0.11492168,9.57201862,0.21092236,0.03621899,-0.00213053
1691768707743432,0.18195933,0.25857377,9.43315506,0.20453078,0.04474111,-0.01917476
1691768707745435,-0.11971009,-0.08619126,9.53849983,0.18109496,0.02982740,-0.00745685
1691768707747438,0.10534488,0.11971009,9.39484787,0.15872440,0.02024002,-0.00106526
1691768707749458,-0.26815060,-0.25857377,9.73003578,0.14700650,0.03834952,0.01171791
1691768707751499,-0.09097967,-0.13886370,9.63426781,0.15978967,0.02876214,0.00532632
1691768707753507,0.40222588,0.36391866,9.45230865,0.15552860,0.02982740,0.01171791
1691768707755462,-0.13886370,-0.12928689,9.84495735,0.10972223,0.01597897,0.01704423
1691768707757471,0.00000000,-0.06703765,9.62947941,0.08309063,0.02769688,0.01810949
1691768707759439,0.16280572,-0.00478840,9.81143856,0.06604639,0.02769688,0.00852212
1691768707761443,-0.25857377,-0.37828386,9.94551373,0.03195793,0.00958738,0.01278317
1691768707763535,0.22984336,-0.06703765,9.96945572,-0.05219796,0.02130529,0.01384844
1691768707765426,-0.08619126,-0.30166942,10.13226128,-0.08202536,-0.00319579,0.01171791
1691768707767445,0.23463176,-0.04309563,9.81622696,-0.13102752,0.00426106,-0.01065264
1691768707769437,0.21068975,-0.07661445,10.00776291,-0.14594123,-0.01065264,0.00319579
1691768707771638,0.06703765,-0.20590134,9.79228497,-0.13741912,-0.00745685,-0.00852212
1691768707773472,0.11013328,0.01915361,9.77313137,-0.08096009,-0.02130529,-0.02769688
1691768707775448,0.06224924,0.14844051,9.92157173,-0.04154531,-0.00639159,-0.02769688
1691768707777512,0.08140286,0.15801731,9.63426781,0.00319579,0.00745685,-0.02663161
1691768707779499,0.13407530,0.34476504,9.62947941,0.04687164,0.00000000,-0.00745685
1691768707781464,-0.01915361,0.15801731,9.53849983,0.09480853,0.00639159,-0.00745685
1691768707783398,-0.00478840,0.25857377,9.47625065,0.11930962,0.01810949,0.00532632
1691768707785420,-0.07661445,0.10055647,9.75397778,0.10865697,0.01384844,-0.00532632
1691768707787441,-0.11971009,0.13407530,9.60074902,0.10120012,0.00426106,0.01171791
1691768707789518,-0.03830723,0.18195933,9.73961258,0.07350325,0.04580637,-0.00958738
1691768707791439,-0.09097967,-0.09576806,9.83538055,0.05219796,0.03408846,-0.00213053
1691768707793454,0.22505496,0.00000000,9.81143856,-0.03728426,0.02556635,0.00426106
1691768707795489,-0.05267244,0.05267244,9.96466732,-0.07243798,0.02769688,-0.00426106
1691768707797569,-0.07182605,-0.22026655,9.90241814,-0.09693906,0.01704423,0.01384844
1691768707799477,0.02394202,-0.09097967,10.20408726,-0.12037488,-0.00213053,0.00000000
1691768707801446,-0.16759412,-0.16280572,10.21845245,-0.14274544,-0.00426106,0.01597897
1691768707803514,0.13886370,0.00957681,10.05085850,-0.15978967,-0.04367584,0.00106526
1691768707805530,0.03830723,-0.09097967,10.16099167,-0.14487596,-0.06072007,0.01917476
1691768707807473,0.25857377,0.05746084,9.72045898,-0.12357067,-0.03941479,-0.00958738
1691768707809406,0.12928689,0.23463176,9.85453415,-0.08415589,-0.07243798,0.00426106
1691768707811461,0.25378537,0.24899697,9.73482418,0.02130529,-0.06178534,0.03408846
1691768707813510,0.15801731,0.35913026,9.58159542,0.05858954,-0.04580637,0.02450108
1691768707815436,-0.13407530,0.34476504,9.84016895,0.11398330,-0.01704423,0.01597897
1691768707817473,0.05267244,0.36870706,9.63426781,0.18109496,-0.00106526,0.01704423
1691768707819378,-0.00957681,0.41180268,9.67736340,0.19387813,0.02130529,0.03621899
1691768707821485,-0.12449849,0.36391866,9.64863300,0.13315806,0.05219796,-0.01491370
1691768707823460,0.06224924,0.22026655,9.61511421,0.12570120,0.06285060,0.01917476
1691768707825417,-0.24420857,0.00957681,9.87847614,0.09800433,0.07989483,0.00213053
1691768707827463,-0.23463176,0.07182605,9.68694019,0.05645901,0.07563377,-0.00958738
1691768707829525,-0.00478840,0.01436521,10.02691650,0.01491370,0.10652644,-0.00106526
1691768707831469,-0.37349546,-0.25378537,10.05564690,-0.01384844,0.08096009,0.00745685
1691768707833468,0.31603462,0.13886370,9.77313137,-0.06817693,0.09267800,-0.01597897
1691768707835445,0.08619126,-0.06224924,10.03170490,-0.08415589,0.07989483,0.00532632
1691768707837654,-0.18674773,-0.18674773,9.89762974,-0.06391586,0.08415589,0.03834952
1691768707839482,0.10055647,0.10534488,9.83538055,-0.01491370,0.07137272,0.00106526
1691768707841473,-0.16280572,0.14844051,9.98382092,0.01065264,0.06711166,0.01597897
1691768707843447,0.19632454,0.21547815,9.46667385,0.05539375,0.07030746,0.01917476
1691768707845414,0.15322891,0.31603462,9.73961258,0.08948221,0.05752428,0.01810949
1691768707847470,0.23463176,0.27293900,9.43315506,0.13741912,0.05645901,0.01704423
1691768707849484,0.27293900,0.29209262,9.46667385,0.15339808,0.04048005,0.01278317
1691768707851533,-0.21068975,0.11492168,9.73003578,0.15233281,0.02876214,0.03302320
1691768707853502,0.13407530,0.08619126,9.50498104,0.14700650,0.00852212,0.02343582
1691768707855456,0.33518824,0.22505496,9.77313137,0.14168017,-0.00213053,0.00958738
1691768707857485,-0.17717093,-0.00478840,9.83059216,0.11611383,-0.01491370,0.01491370
1691768707859384,0.40701428,0.10055647,9.45709705,0.07456851,-0.01278317,0.01171791
1691768707861469,-0.14844051,-0.09097967,9.95509052,0.04900216,-0.03834952,0.00106526
1691768707863510,0.06703765,-0.22505496,9.71088219,0.01597897,-0.02343582,-0.00745685
1691768707865421,0.19153613,0.00957681,9.84495735,-0.00532632,-0.01491370,0.01704423
1691768707867454,-0.20590134,-0.11492168,10.09874249,-0.02663161,-0.01597897,0.02130529
1691768707869479,0.09097967,0.00957681,9.85453415,-0.03941479,-0.00639159,0.03302320
1691768707871488,0.02873042,0.07661445,10.12268448,-0.04900216,0.00426106,0.03728426
1691768707873497,0.20111294,-0.02394202,9.95509052,-0.03728426,0.01384844,0.03515373
1691768707875429,0.10534488,0.09097967,9.97424412,-0.01917476,0.01491370,0.02769688
1691768707877485,-0.11971009,0.11492168,10.12747288,0.00852212,0.02876214,0.02876214
1691768707879570,0.05267244,-0.00478840,9.88326454,0.02982740,0.01810949,0.02237055
1691768707881478,-0.01436521,0.22026655,10.16578007,0.01171791,0.02876214,0.02343582
1691768707883449,0.08140286,0.00000000,9.99818611,-0.00532632,0.02982740,0.02450108
1691768707885426,0.10055647,-0.05746084,10.12747288,-0.00106526,0.02769688,0.02769688
1691768707887512,0.06703765,0.24420857,10.20408726,-0.01065264,0.02130529,0.02876214
1691768707889452,0.17717093,0.06224924,10.10831928,-0.01917476,0.01810949,0.02663161
1691768707891459,-0.03830723,-0.02873042,10.28070164,-0.02237055,0.00639159,0.01384844
1691768707893447,0.16759412,0.01436521,10.21366405,-0.01171791,0.00958738,0.01810949
1691768707895468,0.00478840,-0.18674773,10.30943298,-0.02876214,-0.00532632,0.00852212
1691768707897455,-0.01915361,-0.46926352,10.29985619,-0.05219796,-0.00745685,-0.00213053
1691768707899486,-0.33518824,-0.75656772,10.51533413,-0.09374327,0.01171791,0.01704423
1691768707901453,-0.22505496,-0.54108959,10.49618053,-0.11930962,0.00426106,0.02024002
1691768707903462,-0.06224924,-0.64643449,10.50096893,-0.15446334,-0.01810949,0.03408846
1691768707905470,-0.34476504,-0.56503159,10.64462090,-0.17470337,-0.02343582,0.03089267
1691768707907455,0.22505496,-0.29688102,10.61110210,-0.19707392,-0.02982740,0.02237055
1691768707909448,-0.09097967,-0.53630120,10.72123528,-0.23968449,-0.05432849,0.01491370
1691768707911450,0.05267244,-0.20590134,10.71165848,-0.27270770,-0.07776430,0.00213053
1691768707913507,0.06224924,-0.44053310,10.74038887,-0.28229508,-0.09693906,0.00000000
1691768707915439,-0.06703765,-0.15801731,10.75475407,-0.29294771,-0.11398330,-0.00852212
1691768707917592,0.36391866,0.02873042,10.63504410,-0.27696875,-0.12037488,0.00639159
1691768707919446,-0.07182605,0.07182605,10.50575733,-0.23755397,-0.12250541,-0.00639159
1691768707921642,0.19153613,0.37828386,10.36210537,-0.20026971,-0.10013486,-0.00106526
1691768707923483,-0.18674773,0.06703765,10.54406452,-0.11398330,-0.05219796,0.00958738
1691768707925434,-0.14365210,0.41659111,10.39083576,-0.08096009,-0.01278317,-0.00639159
1691768707927478,0.17717093,0.45010993,10.18014526,-0.00213053,0.02450108,0.02556635
1691768707929564,-0.27293900,0.25857377,10.38604736,0.04154531,0.05006743,0.01065264
1691768707931561,0.01915361,0.52193600,10.09874249,0.07456851,0.06924219,0.04261058
1691768707933482,-0.14365210,0.05267244,10.23760605,0.08735169,0.07882957,0.01278317
1691768707935445,-0.26336220,0.28251579,10.18972206,0.09374327,0.07882957,0.05006743
1691768707937487,0.05746084,0.22984336,9.99339771,0.06391586,0.04580637,0.01384844
1691768707939535,-0.15322891,0.00000000,10.25197124,0.04687164,0.03408846,0.05858954
1691768707941485,0.13407530,0.24899697,10.03170490,0.01065264,0.00000000,0.01917476
1691768707943467,-0.06224924,-0.21068975,10.28070164,-0.05965481,-0.00745685,0.02450108
1691768707945450,0.04309563,0.01436521,10.25675964,-0.08522116,-0.03728426,0.01491370
1691768707947524,0.39264908,-0.21547815,10.11789608,-0.13635385,-0.05645901,0.00532632
1691768707949475,0.16759412,-0.01436521,10.40041256,-0.19387813,-0.09480853,0.00958738
1691768707951447,0.14365210,-0.06224924,10.30464458,-0.21411815,-0.09161274,0.00958738
1691768707953506,0.16280572,-0.21068975,10.40520096,-0.22903186,-0.08735169,0.04154531
1691768707955467,0.10534488,0.04309563,10.44829655,-0.24181503,-0.08948221,0.02556635
1691768707957581,0.14365210,-0.05746084,10.31900978,-0.21305288,-0.08096009,0.03302320
1691768707959449,0.02394202,0.22026655,10.29985619,-0.19068234,-0.04793690,0.03408846
1691768707961490,0.11971009,0.44532153,10.16578007,-0.17683390,-0.03089267,0.01917476
1691768707963563,-0.00957681,0.17238252,10.09874249,-0.06817693,-0.02769688,0.01384844
1691768707965402,-0.00957681,0.64164603,9.93114853,-0.02876214,-0.01597897,0.00106526
1691768707967449,0.02394202,0.30645782,9.82580376,0.00639159,-0.01065264,-0.01171791
1691768707969435,0.01436521,0.26336220,9.82580376,0.07669904,-0.01704423,0.00319579
1691768707971605,0.01436521,0.37828386,9.59596062,0.14381070,-0.02982740,0.03728426
1691768707973466,-0.00957681,0.13407530,9.62947941,0.15339808,-0.03515373,0.02769688
1691768707975438,-0.08619126,0.46926352,9.65342140,0.15020229,-0.05006743,0.01917476
1691768707977468,0.04788403,0.14844051,9.57201862,0.15872440,-0.07456851,0.02024002
1691768707979621,-0.07182605,-0.09097967,9.65342140,0.11930962,-0.06498113,-0.00639159
1691768707981456,0.26336220,0.12928689,9.67257500,0.06817693,-0.08948221,-0.01597897
1691768707983672,0.08140286,-0.36391866,9.73003578,0.00426106,-0.08841695,-0.00213053
1691768707985434,0.20111294,0.00957681,9.76834297,-0.04793690,-0.09480853,-0.00852212
1691768707987534,0.28251579,-0.02873042,9.89762974,-0.08415589,-0.10120012,-0.00532632
1691768707989515,0.02394202,-0.22505496,9.90241814,-0.17044231,-0.10972223,0.00532632
1691768707991478,0.28730419,-0.03351882,9.88805294,-0.19387813,-0.09693906,0.00958738
1691768707993458,0.07182605,-0.28730419,10.10831928,-0.21198763,-0.11930962,-0.01704423
1691768707995439,0.10534488,-0.01915361,10.03170490,-0.23222765,-0.12357067,-0.01278317
1691768707997575,0.19632454,-0.02873042,10.08437729,-0.25672874,-0.10865697,0.00213053
1691768707999468,0.11492168,0.11013328,9.89284134,-0.18855180,-0.09054748,-0.01278317
1691768708001522,0.14844051,0.27772740,9.83059216,-0.14807175,-0.06711166,-0.02343582
1691768708003472,-0.26815060,0.12449849,10.05085850,-0.09800433,-0.06178534,-0.00106526
1691768708005487,-0.14365210,0.28251579,9.84016895,-0.05326322,-0.03728426,-0.00213053
1691768708007461,0.32082301,0.51235914,9.81622696,0.02982740,-0.03515373,0.00852212
1691768708009458,-0.26815060,0.29688102,9.93593693,0.08522116,-0.01810949,-0.00319579
1691768708011556,0.30166942,0.63206923,9.78270817,0.12144014,-0.02130529,0.02024002
1691768708013493,-0.00957681,0.26336220,9.94551373,0.14594123,-0.01491370,0.01278317
1691768708015433,-0.22505496,0.19632454,9.64863300,0.19281286,-0.01278317,0.00426106
1691768708017479,0.37828386,0.63685763,9.59596062,0.20240024,-0.00745685,0.00852212
1691768708019481,-0.24420857,0.16759412,9.93593693,0.17896442,0.00958738,0.00319579
1691768708021502,0.25857377,0.29209262,9.46188545,0.16618125,0.00319579,0.02130529
1691768708023497,0.21068975,0.15322891,9.83059216,0.13528858,0.02024002,-0.02024002
1691768708025434,-0.27772740,-0.12449849,9.76355457,0.10972223,-0.00106526,0.02450108
1691768708027486,0.21068975,0.00957681,9.83538055,0.05432849,0.01171791,0.00319579
1691768708029528,-0.18674773,-0.20590134,9.96945572,0.04687164,0.00745685,0.02343582
1691768708031463,0.10055647,-0.00957681,9.58638382,0.02876214,-0.00745685,-0.00958738
1691768708033452,0.11492168,-0.00478840,9.78749657,0.00213053,-0.02663161,-0.00852212
1691768708035470,-0.10534488,-0.27772740,9.82101536,-0.02237055,-0.02663161,-0.01491370
1691768708037508,0.25857377,0.06703765,9.63426781,-0.01384844,-0.02556635,-0.02450108
1691768708039504,0.07661445,-0.15801731,9.95987892,0.02237055,-0.05432849,-0.01491370
1691768708041576,0.15801731,0.08140286,9.77791977,0.00639159,-0.05752428,-0.02343582
1691768708043456,0.04309563,-0.12449849,9.91199493,0.01171791,-0.07137272,-0.01278317
1691768708045453,0.03351882,-0.06703765,9.83059216,0.00745685,-0.07669904,-0.02237055
1691768708047489,0.17238252,0.23942018,9.73003578,0.00745685,-0.07030746,-0.00106526
1691768708049457,0.04788403,-0.01436521,9.90720654,-0.00745685,-0.07350325,-0.01065264
1691768708051449,0.11492168,0.08619126,9.81622696,-0.00745685,-0.08096009,-0.02024002
1691768708053457,0.06224924,0.10055647,9.84974575,0.01065264,-0.05645901,-0.01810949
1691768708055472,-0.00957681,0.02873042,9.84495735,0.01491370,-0.05752428,-0.00213053
1691768708057460,0.19153613,0.35913026,9.77791977,0.02876214,-0.05965481,0.00532632
1691768708059389,-0.03351882,0.00957681,9.91199493,0.02769688,-0.03621899,0.00745685
1691768708061470,0.16280572,0.25857377,9.78749657,0.01278317,-0.02450108,0.00000000
1691768708063499,0.07182605,0.10534488,9.91199493,0.00319579,-0.02556635,0.00639159
1691768708065436,-0.23463176,-0.12928689,9.92157173,-0.01491370,-0.01491370,0.01704423
1691768708067450,0.11492168,0.15801731,9.88805294,-0.03195793,-0.00213053,0.01384844
1691768708069477,-0.22984336,-0.26336220,10.18493366,-0.05113269,0.00000000,0.01171791
1691768708071454,0.14844051,-0.21068975,9.98382092,-0.08309063,-0.01278317,0.02769688
1691768708073456,0.08140286,-0.03830723,10.24718285,-0.14381070,-0.02556635,0.00852212
1691768708075429,-0.07661445,-0.21068975,10.23760605,-0.16937704,-0.04048005,-0.00213053
1691768708077481,0.41180268,0.11492168,10.09874249,-0.16937704,-0.03941479,-0.02450108
1691768708079476,-0.22505496,-0.02873042,10.33337498,-0.14807175,-0.07030746,-0.01065264
1691768708081447,0.22505496,-0.04309563,9.91199493,-0.13315806,-0.07669904,-0.01278317
1691768708083505,0.03830723,0.22505496,10.08916569,-0.09054748,-0.08096009,-0.00958738
1691768708085432,-0.17238252,0.16759412,9.86889935,-0.02769688,-0.06285060,0.00000000
1691768708087479,0.33997664,0.49799395,9.56723022,0.07989483,-0.05006743,0.01384844
1691768708089469,-0.16759412,0.53151280,9.87847614,0.11930962,-0.04154531,0.00958738
1691768708091453,0.11013328,0.36870706,9.38527107,0.18642128,0.00000000,-0.00745685
1691768708093440,0.21547815,0.48362875,9.64384460,0.23222765,0.01704423,0.00532632
1691768708095456,-0.24899697,0.22984336,9.60074902,0.24714135,0.04793690,0.00532632
1691768708097492,0.17238252,0.43095630,9.17936897,0.24181503,0.02876214,0.02663161
1691768708099587,-0.21068975,0.29688102,9.62469101,0.28016454,0.03621899,0.02130529
1691768708101456,-0.16759412,0.13886370,9.19373417,0.26631612,0.01171791,0.03195793
1691768708103637,0.29209262,0.49799395,9.33259869,0.21518342,0.01597897,0.01810949
1691768708105468,-0.22026655,-0.15322891,9.14106178,0.22903186,0.01065264,0.01171791
1691768708107478,0.20590134,0.15322891,9.00698662,0.21837921,0.00745685,0.00106526
1691768708109452,0.11971009,0.24899697,9.61511421,0.20026971,0.04367584,-0.01704423
1691768708111454,-0.18674773,-0.15801731,9.40921307,0.17150757,0.03834952,-0.00745685
1691768708113488,0.30166942,0.26815060,9.23204136,0.17789917,0.06498113,-0.03302320
1691768708115432,-0.16280572,-0.09097967,9.74440098,0.17470337,0.07989483,-0.02130529
1691768708117455,0.03830723,0.08140286,9.33738708,0.14168017,0.07243798,-0.01171791
1691768708119468,0.10055647,0.06224924,9.67257500,0.12570120,0.07669904,0.00958738
1691768708121463,-0.24899697,-0.34476504,9.70130539,0.11185277,0.05645901,0.02343582
1691768708123485,0.10055647,0.13886370,9.47146225,0.09480853,0.05539375,0.02130529
1691768708125431,0.01915361,-0.13886370,9.85932255,0.05858954,0.02876214,0.01491370
1691768708127517,0.12449849,-0.11492168,9.61511421,0.05326322,0.02343582,-0.00106526
1691768708129476,0.23942018,0.07661445,9.76355457,0.04900216,0.02130529,0.00213053
1691768708131479,0.09576806,-0.07661445,9.88805294,0.02982740,0.02024002,0.00958738
1691768708133452,0.13407530,0.17717093,9.74440098,0.01704423,0.02876214,-0.00319579
1691768708135373,-0.10055647,-0.11971009,9.93593693,0.00106526,0.04367584,-0.01171791
1691768708137451,0.02873042,-0.13886370,9.85932255,-0.02556635,0.04793690,-0.02556635
1691768708139477,-0.08140286,-0.11492168,10.04128170,-0.06391586,0.06285060,-0.00745685
1691768708141452,-0.09097967,-0.21547815,10.13226128,-0.09800433,0.07563377,-0.02024002
1691768708143456,0.09097967,0.04309563,10.10831928,-0.09587380,0.09587380,-0.00639159
1691768708145427,-0.11492168,-0.16280572,10.33816338,-0.12144014,0.11930962,0.00426106
1691768708147486,0.10534488,-0.02873042,10.15620327,-0.13315806,0.12889700,-0.00852212
1691768708149466,-0.05746084,0.12449849,10.22802925,-0.13741912,0.13422331,-0.02024002
1691768708151449,-0.08619126,0.03351882,10.20887566,-0.10439591,0.12996227,-0.01597897
1691768708153486,0.11492168,0.30645782,10.04607010,-0.08628642,0.11930962,-0.02024002
1691768708155478,-0.14844051,0.10055647,10.19929886,-0.05326322,0.09374327,-0.04474111
1691768708157475,0.14844051,0.11492168,9.98382092,-0.02237055,0.05645901,-0.02450108
1691768708159452,0.08619126,0.30645782,10.09874249,-0.01491370,0.03408846,-0.03302320
1691768708161482,0.01436521,0.07182605,10.07958889,0.00319579,0.02130529,-0.03408846
1691768708163503,0.26336220,0.24420857,10.01733971,-0.01065264,0.00852212,-0.02556635
1691768708165440,-0.11013328,0.06224924,10.23281765,-0.02556635,0.02769688,-0.03195793
1691768708167456,0.12449849,-0.07182605,9.96466732,-0.02343582,0.05539375,-0.02130529
1691768708169471,0.06224924,0.17238252,10.17535686,-0.00958738,0.07669904,0.00852212
1691768708171539,-0.17238252,-0.02873042,10.22802925,-0.05006743,0.10652644,0.01065264
1691768708173481,0.22984336,0.13407530,10.09395409,-0.07563377,0.13528858,0.00213053
1691768708175437,-0.14844051,0.07182605,10.39083576,-0.08415589,0.14594123,0.00639159
1691768708177472,0.04788403,-0.02873042,9.99339771,-0.10013486,0.13848437,-0.01278317
1691768708179464,0.11492168,0.23463176,10.17056847,-0.09480853,0.11717909,-0.01384844
1691768708181476,-0.21068975,0.06224924,10.12747288,-0.06604639,0.08628642,-0.02876214
1691768708183488,0.38307226,0.10534488,9.86411095,-0.04793690,0.07563377,-0.03089267
1691768708185462,-0.05267244,0.23463176,10.29027843,-0.03515373,0.03408846,-0.03728426
1691768708187570,0.20590134,0.05746084,9.83538055,-0.02343582,0.01171791,-0.03195793
1691768708189491,0.24899697,0.18195933,10.04128170,-0.02343582,-0.00319579,-0.04474111
1691768708191458,-0.06224924,0.16759412,10.08437729,-0.02130529,-0.01171791,-0.03941479
1691768708193463,0.44053310,-0.00478840,9.79228497,-0.02237055,-0.01384844,-0.02769688
1691768708195442,-0.05267244,0.11492168,10.22324085,-0.02450108,-0.01917476,-0.01917476
1691768708197489,0.19632454,-0.02873042,9.78270817,-0.02237055,-0.01810949,-0.00213053
1691768708199469,0.20111294,0.16280572,10.01733971,-0.02982740,-0.00319579,-0.00426106
1691768708201470,-0.07182605,0.28730419,10.15620327,-0.04048005,0.00319579,0.01917476
1691768708203507,0.35913026,0.01915361,9.78749657,-0.04900216,-0.00745685,0.02663161
1691768708205476,-0.06703765,0.17238252,10.28549004,-0.04154531,0.01278317,0.02450108
1691768708207460,0.07661445,0.04788403,9.90241814,-0.03302320,0.01065264,0.01171791
1691768708209454,0.08140286,0.08619126,9.97903252,-0.03728426,0.01704423,0.00852212
1691768708211512,-0.15322891,0.28251579,10.13704967,-0.03302320,0.03195793,0.01704423
1691768708213573,0.14844051,-0.00478840,9.84016895,-0.01278317,0.03621899,0.00213053
1691768708215459,-0.00957681,0.18195933,10.24718285,-0.01704423,0.05219796,-0.01065264
1691768708217486,0.05267244,0.10055647,9.98860931,-0.02024002,0.07989483,-0.01491370
1691768708219486,0.03830723,-0.00957681,10.06522369,-0.01491370,0.08948221,-0.00745685
1691768708221533,-0.07182605,0.34476504,10.18493366,-0.01171791,0.10333065,0.00000000
1691768708223492,0.07182605,0.08619126,9.99818611,-0.01491370,0.11398330,0.00000000
1691768708225432,-0.04309563,0.11492168,10.25675964,-0.02556635,0.11185277,0.01171791
1691768708227463,0.05267244,0.08619126,10.09395409,-0.03941479,0.09906960,0.02343582
1691768708229524,-0.01915361,-0.14844051,10.20408726,-0.03834952,0.09587380,0.03728426
1691768708231490,0.02873042,0.17717093,10.31422138,-0.04367584,0.07243798,0.02982740
1691768708233474,0.24420857,-0.03351882,10.20887566,-0.07243798,0.06924219,0.02663161
1691768708235433,0.05267244,-0.06224924,10.46266174,-0.09800433,0.05432849,0.01597897
1691768708237526,0.26815060,0.03830723,10.39083576,-0.14594123,0.05645901,-0.00426106
1691768708239487,0.03351882,-0.23942018,10.56800652,-0.18429075,0.05645901,-0.00532632
1691768708241470,0.08140286,0.00957681,10.63983250,-0.20666130,0.06072007,-0.00745685
1691768708243454,0.13407530,-0.19153613,10.58237171,-0.22370553,0.06391586,0.00745685
1691768708245459,0.01436521,-0.07182605,10.74996567,-0.22583605,0.06391586,0.00106526
1691768708247478,0.26815060,0.14844051,10.62546730,-0.20346551,0.06391586,-0.00745685
1691768708249446,-0.04788403,-0.11971009,10.70208168,-0.18748654,0.05752428,-0.02556635
1691768708251513,0.11013328,0.15801731,10.60631371,-0.16831177,0.05752428,-0.00639159
1691768708253460,-0.01915361,-0.04788403,10.50575733,-0.14913702,0.05539375,-0.00745685
1691768708255460,-0.00478840,0.15801731,10.51054573,-0.12889700,0.05858954,0.00319579
1691768708257513,0.22505496,0.37828386,10.36210537,-0.10652644,0.06072007,0.02130529
1691768708259468,-0.02394202,0.25857377,10.37647057,-0.07030746,0.08841695,0.01491370
1691768708261464,0.11492168,0.46447513,10.18493366,-0.00852212,0.11185277,0.02130529
1691768708263555,-0.09576806,0.22505496,10.19929886,0.04048005,0.11078750,0.02024002
1691768708265442,-0.09097967,0.26815060,10.24718285,0.04793690,0.11504856,0.03195793
1691768708267456,0.07182605,0.22505496,10.01733971,0.06072007,0.12463594,0.02556635
1691768708269470,0.00000000,0.26336220,10.07480049,0.07456851,0.11930962,0.03408846
1691768708271507,0.17717093,0.36391866,9.91678333,0.08522116,0.08415589,0.02663161
1691768708273484,0.18674773,0.17717093,9.95987892,0.07456851,0.05006743,0.04048005
1691768708275449,-0.03830723,0.17717093,10.00297451,0.08096009,0.01810949,0.02237055
1691768708277469,0.32082301,0.14844051,9.78270817,0.06391586,-0.00639159,0.00958738
1691768708279502,0.12928689,0.20111294,9.89762974,0.07350325,-0.04687164,0.01278317
1691768708281476,0.15322891,0.22026655,9.72524738,0.08309063,-0.06285060,0.02024002
1691768708283457,0.45489833,0.10534488,9.66299820,0.10120012,-0.07030746,0.02130529
1691768708285482,-0.07661445,0.10534488,9.71088219,0.12357067,-0.07563377,0.01597897
1691768708287485,0.35913026,0.08140286,9.38048267,0.13315806,-0.06604639,0.02982740
1691768708289503,0.06703765,0.14844051,9.55765343,0.13102752,-0.07030746,0.02024002
1691768708291525,0.01436521,0.27772740,9.43794346,0.13422331,-0.05006743,0.00958738
1691768708293456,0.40701428,0.29209262,9.33738708,0.16085494,-0.03515373,0.00426106
1691768708295451,-0.09576806,0.35434186,9.59117222,0.18322548,-0.03515373,0.00958738
1691768708297480,0.27293900,0.27293900,9.26077175,0.19494340,-0.04367584,0.00852212
1691768708299473,0.07182605,0.09576806,9.57680702,0.18642128,-0.04154531,0.00426106
1691768708301455,-0.22505496,0.10055647,9.52413464,0.17470337,-0.05965481,0.02237055
1691768708303483,0.27293900,0.02873042,9.42836666,0.15339808,-0.08841695,0.03302320
1691768708305456,-0.26336220,0.01436521,9.80186176,0.14594123,-0.09480853,0.02663161
1691768708307476,0.19632454,0.09576806,9.43794346,0.13848437,-0.11504856,0.01065264
1691768708309456,0.29688102,0.04788403,9.68215179,0.11504856,-0.12463594,0.01491370
1691768708311482,-0.13886370,0.21547815,9.74440098,0.08841695,-0.14168017,0.00958738
1691768708313508,0.45489833,0.08619126,9.53371143,0.05006743,-0.15020229,-0.00319579
1691768708315435,-0.07182605,-0.08140286,9.92157173,0.05113269,-0.16511598,0.00319579
1691768708317460,0.09097967,0.06224924,9.62947941,0.03621899,-0.16511598,0.00213053
1691768708319483,0.13407530,-0.12449849,9.75876617,0.04474111,-0.17257284,0.02024002
1691768708321533,-0.20111294,0.08140286,9.85453415,0.03941479,-0.17363811,0.01171791
1691768708323467,0.28251579,0.13886370,9.61990261,0.06178534,-0.17576863,0.02237055
1691768708325432,0.03830723,0.03830723,9.88805294,0.07882957,-0.18002969,0.01278317
1691768708327469,0.16280572,0.39743748,9.68215179,0.09480853,-0.16831177,0.00106526
1691768708329513,0.17717093,0.03351882,9.75397778,0.12676647,-0.17150757,-0.00532632
1691768708331480,-0.20111294,0.19632454,9.84016895,0.14700650,-0.16937704,-0.00639159
1691768708333470,0.06703765,0.33039984,9.62947941,0.16937704,-0.17044231,-0.00852212
1691768708335451,-0.15322891,-0.01915361,9.82580376,0.17683390,-0.16192019,-0.00106526
1691768708337513,-0.11971009,0.26815060,9.75397778,0.18855180,-0.16298546,0.00532632
1691768708339516,0.24899697,0.17238252,9.51455784,0.22477080,-0.16511598,-0.00426106
1691768708341459,-0.03351882,0.24899697,9.57680702,0.24927188,-0.15872440,0.00000000
1691768708343504,-0.09576806,0.35913026,9.43794346,0.25885925,-0.15126754,0.00213053
1691768708345465,-0.05267244,0.11492168,9.46667385,0.25885925,-0.10972223,0.00106526
1691768708347486,-0.04788403,0.07661445,9.54328823,0.26312032,-0.09800433,-0.00426106
1691768708349477,0.14844051,0.37349546,9.42836666,0.25672874,-0.08309063,-0.00426106
1691768708351458,-0.01915361,-0.02873042,9.54807663,0.20026971,-0.06391586,-0.00319579
1691768708353541,0.00957681,0.20590134,9.54328823,0.17576863,-0.09054748,0.01278317
1691768708355478,-0.10534488,-0.22505496,9.67736340,0.10120012,-0.09587380,0.01384844
1691768708357471,-0.08619126,-0.23463176,9.61511421,0.09054748,-0.13848437,0.02130529
1691768708359457,0.20590134,-0.01436521,9.52413464,0.03621899,-0.18002969,0.00745685
1691768708361489,0.01915361,-0.30166942,9.67736340,0.01597897,-0.25992453,0.00532632
1691768708363545,0.28251579,-0.23463176,9.49540424,-0.01917476,-0.29081720,0.00319579
1691768708365461,-0.03351882,-0.09097967,9.72045898,-0.02769688,-0.32703617,0.00426106
1691768708367466,0.19632454,-0.22026655,9.68694019,-0.02237055,-0.32064459,0.00532632
1691768708369476,0.37349546,0.18195933,9.57201862,-0.02237055,-0.30360037,-0.01278317
1691768708371642,-0.03830723,0.06224924,9.77313137,-0.03728426,-0.26844662,0.01704423
1691768708373472,0.24899697,0.02873042,9.57680702,-0.04580637,-0.22370553,0.00639159
1691768708375445,0.01436521,0.11971009,9.64863300,-0.05645901,-0.18642128,0.03621899
1691768708377474,-0.28251579,-0.15801731,9.78749657,-0.06711166,-0.16511598,0.00213053
1691768708379525,-0.05267244,-0.04309563,9.59117222,-0.03302320,-0.14168017,-0.01704423
1691768708381479,-0.15801731,0.15801731,9.83538055,-0.00426106,-0.12783173,-0.03089267
1691768708383478,-0.27772740,-0.03830723,9.63905621,0.01917476,-0.11611383,-0.00106526
1691768708385442,0.08140286,0.41659111,9.55286503,0.03515373,-0.10120012,-0.00958738
1691768708387503,-0.30166942,0.23463176,9.77313137,0.09267800,-0.06604639,0.00745685
1691768708389518,-0.09576806,0.17717093,9.46667385,0.10546118,-0.04580637,0.00213053
1691768708391470,0.12449849,0.55066639,9.80665016,0.07350325,-0.04367584,0.01065264
1691768708393485,-0.39264908,-0.09097967,9.77791977,0.06072007,-0.03621899,0.02237055
1691768708395428,0.11971009,0.13886370,9.59117222,0.04154531,-0.01384844,0.02982740
1691768708397527,-0.26815060,-0.18195933,9.99818611,-0.03515373,-0.05645901,0.03834952
1691768708399462,0.18195933,0.02394202,9.73482418,-0.08628642,-0.05645901,0.04793690
1691768708401456,0.28251579,0.02873042,10.02212811,-0.12144014,-0.06072007,0.02769688
1691768708403488,-0.21547815,-0.32561144,10.14183807,-0.15020229,-0.08522116,-0.00106526
1691768708405553,0.34955344,0.04788403,9.84495735,-0.16937704,-0.09587380,-0.00426106
1691768708407462,-0.12449849,0.06224924,10.33337498,-0.17470337,-0.10652644,0.00745685
1691768708409456,0.01915361,-0.24899697,9.95030212,-0.16511598,-0.09374327,-0.01278317
1691768708411476,0.31124622,0.05746084,9.99339771,-0.13954964,-0.10546118,0.00000000
1691768708413578,-0.17717093,-0.07182605,10.23760605,-0.13315806,-0.07669904,0.01810949
1691768708415534,0.25857377,0.11971009,9.75397778,-0.09587380,-0.07137272,0.01171791
1691768708417492,-0.01915361,0.39743748,10.11789608,-0.06711166,-0.03834952,0.00745685
1691768708419463,-0.15801731,0.25378537,9.81622696,-0.02343582,0.00213053,0.00852212
1691768708421501,0.08619126,0.45968673,9.74918938,0.03408846,0.00106526,0.00426106
1691768708423493,-0.28730419,0.23463176,10.03649330,0.07456851,0.02876214,0.01704423
1691768708425460,-0.07661445,0.24420857,9.56723022,0.10439591,0.04261058,0.01597897
1691768708427482,0.06224924,0.39264908,9.87847614,0.13209279,0.05006743,0.02876214
1691768708429533,-0.19632454,0.10055647,9.80186176,0.14274544,0.05645901,0.02982740
1691768708431476,0.25857377,0.38307226,9.58638382,0.11717909,0.07669904,0.02450108
1691768708433503,-0.16280572,0.21547815,9.93593693,0.09693906,0.06817693,0.00958738
1691768708435453,-0.14365210,0.10055647,9.59596062,0.07030746,0.07350325,0.02556635
1691768708437577,0.07661445,0.21068975,9.79228497,0.01278317,0.09267800,0.00000000
1691768708439491,-0.26815060,-0.22026655,9.92636013,-0.02237055,0.06924219,-0.00532632
1691768708441528,0.19632454,-0.02394202,9.76355457,-0.07030746,0.09587380,-0.00958738
1691768708443491,-0.05267244,-0.13407530,10.14183807,-0.08735169,0.08202536,-0.00852212
1691768708445496,0.00957681,-0.20590134,9.96945572,-0.12463594,0.08309063,-0.01917476
1691768708447499,0.19632454,-0.00478840,10.09395409,-0.13315806,0.07776430,-0.00852212
1691768708449487,-0.11971009,-0.22984336,10.17056847,-0.14594123,0.08948221,-0.01171791
1691768708451463,0.14365210,0.04309563,9.94551373,-0.15020229,0.07243798,-0.01384844
1691768708453428,-0.04788403,0.06224924,10.17056847,-0.14381070,0.07350325,-0.00106526
1691768708455485,0.14844051,0.19153613,9.84974575,-0.11504856,0.08309063,0.00106526
1691768708457538,0.11971009,0.17238252,9.93114853,-0.06924219,0.07137272,-0.00532632
1691768708459456,-0.03830723,0.10534488,9.97903252,-0.03089267,0.09054748,0.01065264
1691768708461483,0.11971009,0.42616791,9.69172859,0.02343582,0.09054748,0.00213053
1691768708463569,-0.00478840,0.31124622,9.76355457,0.05539375,0.09587380,0.02237055
1691768708465446,-0.06703765,0.24420857,9.66299820,0.07350325,0.09054748,0.04900216
1691768708467484,0.09576806,0.44053310,9.65820980,0.05219796,0.09800433,0.04154531
1691768708469484,-0.10055647,0.22505496,9.79707336,0.02876214,0.09587380,0.02343582
1691768708471593,0.08140286,0.22984336,9.66299820,0.02663161,0.07989483,0.04474111
1691768708473518,0.05267244,0.10534488,9.78749657,-0.02556635,0.08841695,0.01810949
1691768708475454,-0.05267244,0.01915361,9.73482418,-0.06604639,0.09693906,0.00106526
1691768708477464,0.19632454,0.16759412,9.64384460,-0.09267800,0.10972223,0.01917476
1691768708479496,-0.07182605,-0.01915361,9.66778660,-0.06285060,0.11717909,0.00426106
1691768708481455,0.05746084,0.11971009,9.50976944,-0.04474111,0.14913702,-0.02982740
1691768708483496,-0.05746084,-0.13407530,9.34217548,0.00745685,0.16192019,-0.02130529
1691768708485440,0.11971009,0.11971009,9.14585018,0.03834952,0.18855180,-0.01384844
1691768708487542,0.05267244,0.27293900,9.23682976,0.08522116,0.20453078,0.00532632
1691768708489504,-0.12449849,0.10055647,9.30386734,0.12037488,0.20666130,0.01704423
1691768708491534,0.04309563,0.25378537,9.33738708,0.12676647,0.18748654,0.06285060
1691768708493483,-0.01915361,0.00478840,9.53371143,0.12037488,0.19600865,0.04367584
1691768708495484,0.05746084,-0.06224924,9.45230865,0.12889700,0.16724652,0.02663161
1691768708497489,0.20111294,0.20111294,9.51934624,0.09587380,0.14700650,0.02982740
1691768708499563,0.04309563,-0.09576806,9.52892303,0.04048005,0.13528858,0.01491370
1691768708501462,0.16759412,0.06703765,9.49061584,0.01384844,0.13209279,0.00213053
1691768708503454,0.06224924,0.04788403,9.69651699,-0.00106526,0.12144014,-0.00958738
1691768708505458,0.32082301,0.02873042,9.53849983,-0.05113269,0.10652644,-0.00745685
1691768708507520,0.11492168,0.12449849,9.62947941,-0.06285060,0.09906960,-0.01917476
1691768708509470,-0.05267244,-0.09576806,9.77791977,-0.04900216,0.07350325,-0.00958738
1691768708511487,0.27293900,0.12449849,9.58159542,-0.03728426,0.07882957,-0.01065264
1691768708513590,0.19632454,0.18674773,9.76355457,-0.02663161,0.07030746,-0.00213053
1691768708515447,0.07182605,-0.03830723,9.72045898,-0.01065264,0.06391586,0.00319579
1691768708517552,0.17717093,0.21068975,9.66299820,0.00000000,0.06604639,-0.00106526
1691768708519466,-0.14365210,0.09097967,9.90241814,-0.00852212,0.07669904,0.00639159
1691768708521632,0.05746084,0.14365210,9.75397778,0.00106526,0.07350325,0.00000000
1691768708523486,0.11971009,0.22026655,9.89284134,0.00532632,0.07882957,0.00532632
1691768708525451,0.00000000,0.00000000,9.95987892,-0.00745685,0.08628642,-0.00319579
1691768708527484,0.23942018,0.20111294,9.86889935,-0.00745685,0.09161274,-0.00213053
1691768708529461,-0.11971009,0.06224924,10.17535686,-0.00745685,0.09267800,0.00852212
1691768708531470,-0.10534488,0.05746084,10.01733971,-0.03408846,0.09267800,0.00213053
1691768708533456,0.11971009,0.13407530,10.18493366,-0.07030746,0.11078750,-0.00106526
1691768708535475,-0.14365210,-0.20590134,10.34774017,-0.07882957,0.12037488,-0.01597897
1691768708537505,0.14365210,0.15801731,10.26633644,-0.10226539,0.13315806,-0.00532632
1691768708539457,-0.01915361,0.10055647,10.46266174,-0.11930962,0.14274544,-0.00532632
1691768708541515,0.20590134,0.03351882,10.14662647,-0.12676647,0.15552860,0.00426106
1691768708543485,0.21547815,0.10534488,10.29506683,-0.13954964,0.14807175,-0.00426106
1691768708545445,-0.23942018,-0.18195933,10.52969933,-0.16405073,0.14061491,-0.01278317
1691768708547487,0.27293900,0.03830723,10.18014526,-0.18855180,0.12783173,-0.00319579
1691768708549462,0.06224924,0.01436521,10.56321812,-0.19387813,0.10120012,0.00213053
1691768708551454,0.00000000,-0.03830723,10.34774017,-0.19068234,0.08415589,-0.00532632
1691768708553489,0.43574470,0.13886370,10.33337498,-0.18855180,0.04580637,-0.01597897
1691768708555488,-0.23942018,0.01915361,10.53927612,-0.17683390,0.01917476,-0.01810949
1691768708557595,0.42137951,0.16280572,10.04607010,-0.13635385,0.00958738,0.01065264
1691768708559468,0.11492168,0.30166942,10.30943298,-0.10120012,-0.00213053,0.00639159
1691768708561559,0.18195933,0.27772740,10.06522369,-0.06498113,0.00532632,0.01491370
1691768708563545,0.39743748,0.35434186,9.94072533,-0.03515373,0.01917476,0.02450108
1691768708565445,-0.13886370,0.27293900,10.18972206,-0.00532632,0.02982740,0.01171791
1691768708567467,0.26336220,0.27293900,9.70609379,0.02556635,0.03834952,-0.00213053
1691768708569489,-0.04788403,0.29688102,10.07480049,0.05219796,0.05539375,-0.00745685
1691768708571644,-0.06703765,0.18195933,9.86411095,0.04154531,0.07989483,-0.00426106
1691768708573473,0.30166942,0.39743748,9.74918938,0.02769688,0.07882957,0.00639159
1691768708575450,-0.20111294,0.20590134,10.12747288,0.02556635,0.07989483,0.01597897
1691768708577486,0.16759412,0.11971009,9.59117222,0.01704423,0.06178534,0.00213053
1691768708579640,0.13407530,0.17717093,10.00297451,-0.01384844,0.04474111,0.01917476
1691768708581481,-0.27293900,-0.11492168,9.92636013,-0.02769688,0.00958738,-0.00426106
1691768708583500,0.44053310,0.10055647,9.69172859,-0.06285060,-0.00319579,-0.01171791
1691768708585460,-0.12449849,0.00957681,10.16578007,-0.05965481,-0.03941479,-0.01491370
1691768708587520,0.30166942,0.01436521,9.66778660,-0.05539375,-0.04580637,0.00426106
1691768708589513,0.23463176,0.33997664,9.86411095,-0.04367584,-0.03728426,0.00852212
1691768708591570,-0.21068975,0.21547815,9.90720654,-0.02982740,-0.02556635,0.02450108
1691768708593543,0.30166942,0.32082301,9.55765343,0.01810949,0.00532632,0.02343582
1691768708595456,-0.17717093,0.32082301,10.04607010,0.03195793,0.02982740,0.01278317
1691768708597495,0.10055647,0.17717093,9.66778660,0.04687164,0.04474111,0.01278317
1691768708599511,0.15322891,0.34476504,9.81622696,0.07882957,0.06178534,0.00852212
1691768708601489,-0.19153613,0.20590134,9.99339771,0.08309063,0.07882957,0.00745685
1691768708603506,0.16280572,0.24420857,9.90241814,0.05965481,0.06924219,0.00745685
1691768708605478,-0.13407530,0.17717093,10.11789608,0.06072007,0.05645901,0.01917476
1691768708607473,-0.07182605,-0.03351882,9.78270817,0.04474111,0.02450108,0.01597897
1691768708609457,0.30645782,0.15322891,9.84974575,-0.00532632,-0.00426106,0.00745685
1691768708611545,0.00478840,-0.02394202,9.75876617,-0.01171791,-0.03515373,-0.00639159
1691768708613521,0.33039984,0.03830723,9.56244183,-0.00532632,-0.05113269,-0.00213053
1691768708615497,0.08619126,0.29209262,9.88326454,0.00532632,-0.07563377,0.01065264
1691768708617471,0.00957681,0.15801731,9.70609379,0.00532632,-0.08096009,0.00319579
1691768708619484,0.45489833,0.21068975,9.53849983,0.04154531,-0.05858954,0.01278317
1691768708621513,-0.09097967,0.17717093,9.64384460,0.05645901,-0.05645901,-0.00958738
1691768708623474,0.25857377,0.15801731,9.48582745,0.07776430,-0.05113269,0.00213053
1691768708625460,-0.03830723,0.25857377,9.75397778,0.09161274,-0.03195793,-0.01171791
1691768708627497,-0.19153613,0.14844051,9.62947941,0.09906960,-0.02237055,0.00000000
1691768708629525,0.17717093,0.20111294,9.39963627,0.09374327,-0.01917476,-0.01597897
1691768708631515,-0.22984336,0.21547815,9.84495735,0.09054748,-0.00532632,-0.01065264
1691768708633494,0.11013328,0.06703765,9.44752026,0.08948221,-0.00426106,-0.00958738
1691768708635488,0.10055647,0.22984336,9.70609379,0.06711166,0.00532632,-0.01278317
1691768708637570,0.02873042,0.00000000,9.49540424,0.05432849,0.01065264,-0.01597897
1691768708639477,0.18195933,0.15801731,9.45230865,0.05006743,0.00852212,-0.01278317
1691768708641501,-0.10055647,0.26336220,9.83538055,0.05858954,0.01065264,-0.02024002
1691768708643500,0.15322891,0.15801731,9.48103905,0.06498113,0.01278317,-0.03728426
1691768708645483,0.17717093,0.15801731,9.61511421,0.06924219,-0.00426106,-0.02982740
1691768708647480,-0.11492168,0.14844051,9.85453415,0.07989483,-0.00958738,-0.03089267
1691768708649501,0.16280572,0.11492168,9.55286503,0.08841695,-0.01491370,-0.01810949
1691768708651476,0.00478840,0.33997664,9.84495735,0.09480853,-0.02663161,-0.01278317
1691768708653492,-0.03830723,0.23463176,9.71088219,0.10013486,-0.02982740,-0.00106526
1691768708655513,0.20590134,0.08140286,9.65342140,0.11930962,-0.02982740,-0.00213053
1691768708657608,-0.07182605,0.17238252,9.95987892,0.10759171,-0.03728426,-0.01278317
1691768708659475,0.18195933,0.01436521,9.65342140,0.09800433,-0.03408846,-0.01384844
1691768708661496,0.05746084,0.11013328,9.90720654,0.08841695,-0.03408846,0.00532632
1691768708663490,0.00000000,0.24899697,9.91199493,0.07243798,-0.05539375,0.00745685
1691768708665450,0.31124622,0.01915361,9.80665016,0.03834952,-0.07350325,0.01704423
1691768708667479,-0.05267244,0.09576806,10.11310768,0.02769688,-0.09054748,0.02024002
1691768708669466,0.23942018,-0.02873042,9.85453415,0.02130529,-0.09374327,0.01171791
1691768708671498,0.12928689,-0.07182605,10.04128170,0.01810949,-0.10333065,0.00745685
1691768708673618,0.00957681,0.18195933,10.08437729,0.01491370,-0.11504856,0.01917476
1691768708675465,0.31124622,0.00000000,9.91678333,0.02024002,-0.11611383,0.02343582
1691768708677472,-0.06703765,0.19632454,10.13704967,0.02769688,-0.10972223,0.01171791
1691768708679522,0.10534488,0.19153613,9.86889935,0.03834952,-0.08948221,0.01597897
1691768708681539,0.01436521,-0.05267244,9.95509052,0.04900216,-0.07989483,0.03195793
1691768708683525,-0.15801731,0.30645782,10.00776291,0.05752428,-0.06072007,0.00852212
1691768708685460,0.10055647,0.11971009,9.82101536,0.07776430,-0.04900216,-0.00532632
1691768708687509,-0.22026655,0.29209262,10.03170490,0.08948221,-0.01384844,-0.00319579
1691768708689404,0.05746084,0.33518824,9.91678333,0.09693906,-0.01065264,0.00958738
1691768708691473,-0.17238252,0.19632454,10.14662647,0.07137272,-0.00319579,0.00639159
1691768708693489,-0.14365210,0.24420857,10.11789608,0.06178534,-0.01278317,0.01810949
1691768708695490,0.06703765,0.00478840,9.95030212,0.05539375,-0.02343582,0.01491370
1691768708697528,-0.13407530,0.12928689,10.17535686,0.04048005,-0.02876214,0.01597897
1691768708699565,0.05267244,0.34476504,10.07480049,0.02982740,-0.03941479,-0.00319579
1691768708701483,-0.05267244,-0.01915361,10.18972206,0.02343582,-0.05113269,-0.00958738
1691768708703556,-0.04788403,0.23942018,10.17056847,0.02237055,-0.06178534,-0.01597897
1691768708705480,0.17238252,0.04309563,10.02691650,0.00852212,-0.07030746,-0.02237055
1691768708707463,-0.03830723,-0.00478840,10.19929886,0.04048005,-0.08202536,-0.01704423
1691768708709468,0.14844051,0.12928689,9.94072533,0.05006743,-0.06817693,-0.01810949
1691768708711489,0.19153613,0.03351882,10.01255131,0.05858954,-0.07030746,-0.00426106
1691768708713711,-0.06224924,0.31603462,10.13704967,0.06178534,-0.06178534,-0.00745685
1691768708715482,0.06703765,0.18195933,9.91678333,0.08415589,-0.04580637,-0.00213053
1691768708717501,-0.12928689,0.01436521,10.05564690,0.08202536,-0.03515373,-0.01491370
1691768708719499,0.11492168,0.17238252,9.94072533,0.08522116,-0.03515373,0.01810949
1691768708721463,0.07661445,-0.10534488,9.98382092,0.07669904,-0.03941479,0.02024002
1691768708723497,-0.08140286,0.14844051,10.10831928,0.05752428,-0.03941479,0.02450108
1691768708725461,0.15801731,0.16280572,9.96945572,0.03408846,-0.03834952,0.01704423
1691768708727506,-0.07661445,-0.21068975,10.09395409,0.00000000,-0.03834952,0.01597897
1691768708729492,-0.01436521,0.23942018,10.03649330,-0.01171791,-0.05752428,-0.01171791
1691768708731488,0.11013328,-0.14365210,10.02691650,-0.02130529,-0.06604639,-0.02982740
1691768708733471,-0.09576806,0.04309563,10.10353088,-0.02876214,-0.07350325,-0.02769688
1691768708735457,0.17238252,0.23942018,9.94072533,-0.03195793,-0.07563377,-0.01065264
1691768708737483,0.01436521,-0.15801731,10.01255131,-0.01704423,-0.08841695,-0.01491370
1691768708739551,0.11013328,0.36391866,9.95030212,-0.01491370,-0.07776430,-0.01171791
1691768708741510,0.22505496,-0.05267244,9.95030212,-0.01704423,-0.07669904,-0.00852212
1691768708743464,-0.03830723,0.00000000,10.05564690,-0.00319579,-0.08202536,-0.01278317
1691768708745481,0.17717093,0.38307226,9.93593693,0.01384844,-0.08735169,0.00532632
1691768708747466,-0.05267244,-0.09097967,10.10353088,0.02130529,-0.08841695,0.00319579
1691768708749497,0.04309563,0.37349546,10.10831928,0.02237055,-0.08841695,-0.01171791
1691768708751475,0.16759412,0.03830723,10.14662647,0.02450108,-0.08628642,-0.01384844
1691768708753493,-0.12928689,-0.09576806,10.20887566,-0.00639159,-0.08735169,-0.00852212
1691768708755451,0.14844051,0.32561144,10.07001209,-0.02024002,-0.08841695,-0.00532632
1691768708757472,-0.11492168,-0.14365210,10.15141487,-0.02130529,-0.07882957,0.00319579
1691768708759477,0.04309563,0.39743748,9.97903252,0.00213053,-0.07350325,0.00426106
1691768708761486,0.16759412,0.24420857,9.94551373,0.02663161,-0.07030746,0.00000000
1691768708763512,-0.12928689,-0.00478840,9.95030212,0.04687164,-0.05432849,0.00532632
1691768708765469,0.11492168,0.47405192,9.72045898,0.05965481,-0.04154531,0.00426106
1691768708767472,-0.16280572,-0.06703765,9.81622696,0.08735169,-0.02876214,-0.00213053
1691768708769528,-0.10055647,0.32561144,9.70609379,0.11611383,-0.00745685,-0.01491370
1691768708771477,0.04788403,0.35913026,9.70130539,0.14061491,0.00426106,-0.02130529
1691768708773475,-0.17717093,0.04788403,9.80186176,0.14487596,0.01278317,-0.00745685
1691768708775446,0.04788403,0.51235914,9.71088219,0.13528858,0.02130529,0.00745685
1691768708777472,-0.08619126,-0.00478840,9.79228497,0.10333065,0.03941479,0.00426106
1691768708779478,-0.08619126,0.09576806,9.76834297,0.08202536,0.02982740,0.01704423
1691768708781489,0.09576806,0.16280572,9.80186176,0.04154531,0.02556635,0.01704423
1691768708783469,-0.14844051,-0.28730419,9.93114853,0.01597897,0.00532632,0.02130529
1691768708785447,0.11971009,0.14844051,9.83538055,0.00000000,-0.01171791,0.00958738
1691768708787495,0.12449849,-0.08140286,10.02691650,-0.00745685,-0.02663161,-0.00106526
1691768708789516,-0.08140286,-0.10055647,9.92636013,-0.01278317,-0.06391586,0.00000000
1691768708791486,0.27293900,0.26815060,9.84974575,-0.03089267,-0.07776430,0.00958738
1691768708793473,-0.05746084,-0.11492168,9.94072533,-0.04367584,-0.07669904,0.01278317
1691768708795458,0.11971009,0.21068975,9.73961258,-0.05326322,-0.07669904,0.00958738
1691768708797506,0.20590134,0.14365210,9.87847614,-0.04687164,-0.07030746,0.01597897
1691768708799488,-0.12449849,-0.13886370,9.90720654,-0.03728426,-0.06178534,0.00745685
1691768708801580,0.23463176,0.31603462,9.80665016,-0.03195793,-0.04900216,0.01597897
1691768708803487,-0.14365210,-0.04788403,10.02212811,-0.03941479,-0.03941479,0.00639159
1691768708805476,-0.07661445,0.16759412,9.78270817,-0.04474111,-0.02769688,-0.00639159
1691768708807520,0.14365210,0.29209262,9.91199493,-0.04474111,-0.01917476,-0.00213053
1691768708809472,-0.26815060,-0.18195933,10.04128170,-0.06285060,-0.01065264,0.00000000
1691768708811513,0.23942018,0.24899697,9.85932255,-0.06924219,-0.01171791,0.00106526
1691768708813510,-0.09576806,-0.05267244,10.16099167,-0.06817693,-0.01597897,-0.01065264
1691768708815494,-0.12928689,0.08140286,9.92636013,-0.07137272,-0.01278317,0.00426106
1691768708817504,0.29209262,0.38786069,9.95987892,-0.07137272,-0.02343582,-0.00319579
1691768708819664,-0.31603462,-0.11492168,10.12747288,-0.05965481,-0.02024002,0.00106526
1691768708821546,0.18195933,0.30645782,9.84016895,-0.04580637,-0.03195793,0.00319579
1691768708823488,-0.01436521,0.07661445,10.15620327,-0.02982740,-0.02982740,-0.00106526
1691768708825458,-0.18674773,0.04788403,9.93114853,-0.00852212,-0.01704423,-0.00426106
1691768708827505,0.26815060,0.49799395,9.80665016,0.00532632,-0.00426106,-0.00319579
1691768708829502,-0.24420857,-0.00957681,9.99339771,0.00426106,0.00426106,-0.00426106
1691768708831474,0.15322891,0.31124622,9.60553741,-0.00213053,0.02130529,-0.00958738
1691768708833522,0.04309563,0.15322891,9.85932255,-0.00532632,0.03621899,-0.01171791
1691768708835455,-0.24899697,-0.06703765,9.76834297,-0.00958738,0.03728426,-0.00106526
1691768708837535,0.16280572,0.35913026,9.59117222,-0.03621899,0.04367584,0.00852212
1691768708839487,-0.20590134,-0.05267244,9.88326454,-0.05219796,0.04154531,0.01171791
1691768708841571,0.01436521,0.22026655,9.53849983,-0.05219796,0.02769688,0.00000000
1691768708843471,0.27772740,0.30645782,9.74440098,-0.05219796,0.02343582,-0.01065264
1691768708845453,-0.16280572,-0.08140286,9.76355457,-0.05006743,0.01704423,-0.00426106
1691768708847477,0.24420857,0.26336220,9.53849983,-0.05539375,0.00319579,-0.00106526
1691768708849486,-0.07661445,-0.00957681,9.92636013,-0.06285060,0.00639159,0.01491370
1691768708851482,-0.15801731,0.11013328,9.66299820,-0.05965481,0.00958738,0.00639159
1691768708853568,0.33039984,0.40701428,9.73482418,-0.03941479,0.01810949,0.02876214
1691768708855466,-0.16759412,-0.00478840,9.87847614,-0.04900216,0.02237055,0.02343582
1691768708857463,0.22505496,0.28251579,9.59596062,-0.03728426,0.02769688,0.02663161
1691768708859553,0.05746084,0.07661445,10.00297451,-0.02450108,0.03302320,0.02024002
1691768708861492,0.20590134,0.24899697,9.70609379,-0.04474111,0.03302320,0.02982740
1691768708863483,0.25378537,0.33997664,9.82101536,-0.05539375,0.03195793,0.02450108
1691768708865478,-0.17238252,-0.05746084,10.09874249,-0.04367584,0.02876214,0.02556635
1691768708867406,0.19153613,0.19153613,9.74440098,-0.05113269,0.03089267,0.02130529
1691768708869552,0.26336220,0.15322891,10.07001209,-0.09587380,0.02343582,0.01491370
1691768708871470,-0.22984336,-0.17717093,9.96945572,-0.10226539,0.02450108,0.01704423
1691768708873504,0.24899697,0.20590134,9.80665016,-0.09054748,0.03302320,0.01704423
1691768708875452,-0.13886370,-0.02873042,10.14662647,-0.09161274,0.03302320,0.02024002
1691768708877453,0.04309563,0.16759412,9.76355457,-0.10652644,0.03408846,0.01704423
1691768708879496,0.27772740,0.27293900,9.93593693,-0.08309063,0.03195793,0.01597897
1691768708881473,-0.19153613,-0.02394202,9.96466732,-0.07456851,0.04687164,0.00958738
1691768708883472,0.28730419,0.41180268,9.73003578,-0.05326322,0.04793690,0.00639159
1691768708885398,-0.14365210,0.06224924,10.08916569,-0.04367584,0.05432849,0.00958738
1691768708887526,-0.13886370,0.14365210,9.76355457,-0.02769688,0.05645901,0.00639159
1691768708889487,0.33518824,0.43095630,9.85453415,-0.02556635,0.06072007,0.01171791
1691768708891567,-0.17238252,0.01436521,10.08437729,-0.02343582,0.07137272,0.03089267
1691768708893511,0.31124622,0.30166942,9.73482418,-0.02556635,0.07456851,0.03089267
1691768708895551,0.02873042,0.09097967,10.16099167,-0.03515373,0.07776430,0.02769688
1691768708897524,-0.18195933,0.05746084,9.95987892,-0.04048005,0.06285060,0.03408846
1691768708899440,0.33518824,0.36391866,9.97903252,-0.05432849,0.06924219,0.02237055
1691768708901470,-0.13886370,-0.08619126,10.22324085,-0.06817693,0.04793690,0.01171791
1691768708903487,0.33039984,0.24420857,9.82580376,-0.06285060,0.03728426,0.00426106
1691768708905474,0.19632454,0.19632454,10.17056847,-0.06285060,0.02982740,0.01278317
1691768708907482,-0.13886370,0.01915361,9.98860931,-0.05539375,0.03089267,0.00213053
1691768708909471,0.35913026,0.40222588,9.85932255,-0.04048005,0.02237055,0.00426106
1691768708911492,-0.14365210,0.03830723,10.16578007,-0.03941479,0.02237055,0.01278317
1691768708913565,0.21068975,0.24899697,9.79228497,-0.05006743,0.02876214,0.00958738
1691768708915467,0.25857377,0.19632454,10.03649330,-0.04154531,0.03728426,0.01384844
1691768708917536,-0.15801731,-0.00957681,9.98860931,-0.03195793,0.03515373,0.00852212
1691768708919482,0.25857377,0.40701428,9.81622696,-0.03408846,0.04261058,0.01171791
1691768708921681,-0.21068975,0.03351882,10.19451046,-0.03195793,0.04048005,0.01704423
1691768708923483,0.03830723,0.13886370,9.85932255,-0.03515373,0.04367584,0.02556635
1691768708925448,0.26336220,0.17717093,10.07480049,-0.05326322,0.04474111,0.01917476
1691768708927502,-0.17238252,-0.09097967,10.11789608,-0.07243798,0.04048005,0.01917476
1691768708929532,0.28251579,0.30166942,9.84974575,-0.09161274,0.04261058,0.01810949
1691768708931484,-0.17717093,0.04788403,10.25675964,-0.09161274,0.03834952,0.02130529
1691768708933470,-0.06703765,0.10055647,9.91678333,-0.08202536,0.03834952,0.01491370
1691768708935465,0.23942018,0.27293900,10.01255131,-0.06072007,0.03302320,0.01491370
1691768708937547,-0.14844051,-0.08140286,10.10831928,-0.04900216,0.04580637,0.02130529
1691768708939494,0.28251579,0.27772740,9.68694019,-0.03728426,0.05219796,0.00852212
1691768708941475,-0.03830723,0.15322891,10.07958889,-0.02663161,0.06391586,0.01171791
1691768708943473,-0.21547815,0.15322891,9.81143856,-0.02130529,0.07137272,0.00958738
1691768708945486,0.23942018,0.41180268,9.80665016,-0.02556635,0.07563377,0.01384844
1691768708947494,-0.22505496,-0.07661445,10.04607010,-0.02769688,0.08309063,0.01171791
1691768708949491,0.23942018,0.17238252,9.66299820,-0.02876214,0.08309063,0.01171791
1691768708951565,0.12449849,0.13886370,10.03170490,-0.04367584,0.07882957,0.00426106
1691768708953521,-0.17238252,0.03351882,9.89762974,-0.04793690,0.06711166,-0.00532632
1691768708955474,0.27772740,0.38307226,9.73961258,-0.03515373,0.06711166,-0.00213053
1691768708957490,-0.16759412,0.06224924,10.06043530,-0.00852212,0.05752428,0.00106526
1691768708959477,0.13886370,0.21068975,9.66299820,-0.01384844,0.04900216,-0.00426106
1691768708961499,0.18674773,0.18674773,9.93114853,-0.01065264,0.04261058,0.01065264
1691768708963563,-0.11492168,-0.03351882,9.81143856,0.00319579,0.05219796,0.00532632
1691768708965407,0.32082301,0.34476504,9.55286503,0.01917476,0.06072007,-0.00106526
1691768708967477,-0.12449849,0.14365210,9.93114853,0.01171791,0.06817693,-0.00106526
1691768708969581,-0.03830723,0.15322891,9.55286503,0.01597897,0.06924219,0.00319579
1691768708971639,0.25857377,0.24899697,9.74440098,0.01491370,0.08309063,0.00532632
1691768708973490,-0.21547815,-0.08140286,9.84974575,0.01491370,0.07989483,0.01704423
1691768708975460,0.19153613,0.22984336,9.57201862,0.01491370,0.07563377,0.03515373
1691768708977485,-0.06224924,0.09097967,9.96466732,0.00958738,0.06817693,0.03302320
1691768708979509,-0.13886370,0.08619126,9.68694019,-0.01384844,0.05752428,0.02343582
1691768708981502,0.25857377,0.32561144,9.78749657,-0.03302320,0.04900216,0.02556635
1691768708983484,-0.19153613,-0.04309563,9.98382092,-0.02237055,0.03621899,0.02556635
1691768708985477,0.22026655,0.19632454,9.63905621,-0.01278317,0.02663161,0.02024002
1691768708987618,0.14365210,0.21547815,10.00297451,-0.02024002,0.01810949,0.01597897
1691768708989526,-0.08140286,0.03351882,9.75876617,-0.01917476,0.01491370,0.01704423
1691768708991477,0.31124622,0.23942018,9.68694019,-0.00639159,0.00213053,0.02024002
1691768708993483,-0.16759412,0.07182605,9.97424412,-0.00106526,0.00319579,0.00532632
1691768708995464,0.15322891,0.26336220,9.58638382,-0.00213053,0.00532632,0.01278317
1691768708997493,0.14844051,0.29688102,9.89284134,0.01065264,0.00106526,0.00319579
1691768708999478,-0.18674773,0.02873042,9.72524738,0.02769688,0.01704423,0.00319579
1691768709001465,0.22505496,0.32082301,9.56723022,0.02237055,0.03515373,-0.00532632
1691768709003512,-0.22984336,0.13407530,9.97903252,0.01491370,0.05432849,-0.01810949
1691768709005471,-0.11492168,0.10534488,9.56244183,0.02237055,0.06391586,-0.00106526
1691768709007489,0.09576806,0.30166942,9.80665016,0.01278317,0.09054748,0.00106526
1691768709009481,-0.25378537,0.01436521,9.88805294,0.02769688,0.08522116,0.00319579
1691768709011502,0.22505496,0.26336220,9.62947941,0.04580637,0.07989483,0.00639159
1691768709013515,-0.12449849,0.15801731,9.99818611,0.05858954,0.07669904,0.01065264
1691768709015477,-0.10055647,0.11013328,9.70609379,0.03195793,0.07350325,0.01491370
1691768709017476,0.22026655,0.30166942,9.83538055,0.02343582,0.05858954,0.00639159
1691768709019549,-0.18674773,-0.02873042,9.95030212,0.01278317,0.04793690,0.01065264
1691768709021488,0.27772740,0.21547815,9.61990261,-0.00852212,0.03515373,-0.00958738
1691768709023468,0.08619126,0.21547815,10.03170490,-0.01278317,0.02024002,0.00745685
1691768709025449,-0.04788403,0.02873042,9.75876617,-0.01491370,0.02663161,0.01384844
1691768709027473,0.29688102,0.18674773,9.74440098,0.00000000,0.01597897,0.01704423
1691768709029529,-0.12449849,0.00000000,10.02212811,0.01278317,0.01810949,0.02130529
1691768709031487,0.16759412,0.15322891,9.53849983,0.03834952,0.02556635,0.01704423
1691768709033477,0.12928689,0.30166942,9.87847614,0.05858954,0.02130529,0.01597897
1691768709035409,-0.05746084,0.14844051,9.73482418,0.06604639,0.03089267,0.00426106
1691768709037525,0.31603462,0.34476504,9.62469101,0.06604639,0.04261058,0.00852212
1691768709039485,-0.11971009,0.08619126,9.97903252,0.05432849,0.04687164,0.00319579
1691768709041562,0.05267244,0.04309563,9.61990261,0.05752428,0.04048005,0.02343582
1691768709043471,0.12449849,0.14844051,9.90241814,0.04367584,0.04793690,0.01917476
1691768709045469,-0.16280572,-0.04309563,9.91199493,0.03728426,0.03408846,0.01597897
1691768709047500,0.33039984,0.21068975,9.73482418,0.00106526,0.03834952,0.01704423
1691768709049469,-0.03830723,0.08619126,10.13704967,-0.01171791,0.02130529,0.00213053
1691768709051484,0.10534488,-0.01436521,9.76834297,-0.02024002,0.01384844,-0.00958738
1691768709053500,0.21547815,0.09097967,9.96945572,-0.03302320,-0.00639159,-0.02343582
1691768709055470,-0.20111294,-0.04309563,10.02691650,-0.04580637,-0.01491370,-0.01278317
1691768709057493,0.10534488,0.01915361,9.78270817,-0.04900216,-0.02237055,-0.01810949
1691768709059466,0.07661445,0.22026655,10.09874249,-0.02343582,-0.03515373,0.00532632
1691768709061503,0.14365210,0.13407530,9.78749657,-0.01491370,-0.03195793,-0.00745685
1691768709063502,0.18195933,0.19153613,9.70130539,0.00000000,-0.03302320,0.00745685
1691768709065484,0.00957681,0.26336220,10.05564690,0.02663161,-0.01810949,0.00745685
1691768709067539,0.05267244,0.18674773,9.75397778,0.05219796,-0.01704423,-0.00532632
1691768709069472,-0.05267244,0.26815060,10.04128170,0.05219796,-0.01065264,-0.01278317
1691768709071484,-0.20590134,0.06224924,10.06043530,0.04474111,-0.01065264,-0.00532632
1691768709073505,0.03830723,0.08140286,9.72045898,0.01491370,-0.00213053,0.00745685
1691768709075451,-0.06703765,0.11971009,10.01733971,-0.00426106,0.00319579,-0.00532632
1691768709077480,-0.07661445,0.07182605,9.79707336,0.00106526,0.00106526,0.01704423
1691768709079567,-0.10055647,0.11492168,10.07001209,-0.00639159,0.01065264,0.00426106
1691768709081643,-0.06224924,0.08619126,10.11310768,-0.00532632,0.00958738,0.00213053
1691768709083495,0.32561144,0.20111294,9.80186176,0.00106526,0.00106526,-0.00213053
1691768709085389,-0.05267244,0.14365210,10.00297451,0.00213053,-0.00852212,0.01171791
1691768709087507,0.14844051,0.19632454,9.66299820,0.00639159,-0.00532632,-0.00852212
1691768709089464,0.25857377,0.23463176,9.71567059,0.02556635,-0.00639159,-0.01065264
1691768709091479,-0.17238252,0.10055647,9.78749657,0.04687164,-0.00852212,-0.00852212
1691768709093476,0.22026655,0.32561144,9.55765343,0.05965481,-0.01917476,-0.01597897
1691768709095461,0.14365210,0.33039984,9.73003578,0.08202536,-0.01704423,-0.01810949
1691768709097511,-0.15801731,0.20111294,9.50019264,0.10439591,-0.00106526,-0.00213053
1691768709099514,0.11971009,0.38307226,9.00219822,0.12037488,-0.00852212,0.00000000
1691768709101476,-0.15322891,0.29209262,9.10754299,0.12463594,-0.00958738,-0.00958738
1691768709103467,-0.00478840,0.18195933,8.46589756,0.13528858,-0.02663161,-0.00319579
1691768709105497,-0.01915361,0.23942018,8.33661079,0.12037488,-0.04474111,-0.02237055
1691768709107481,-0.00478840,0.09576806,8.20253468,0.11185277,-0.04900216,-0.01704423
1691768709109483,0.05746084,0.22505496,7.58961916,0.09906960,-0.11504856,-0.01384844
1691768709111495,0.08619126,0.08140286,7.66144562,0.09054748,-0.11717909,-0.01491370
1691768709113559,0.19632454,0.00000000,7.44117880,0.08735169,-0.15126754,-0.00532632
1691768709115468,0.28730419,0.08140286,7.22570086,0.05965481,-0.18748654,-0.01491370
1691768709117479,0.10534488,0.08140286,7.04852962,0.05432849,-0.18855180,0.00852212
1691768709119562,0.24899697,0.00000000,6.94318485,0.06817693,-0.24074976,-0.00106526
1691768709121543,0.18674773,0.13886370,6.88093567,0.05432849,-0.22796659,0.00958738
1691768709123521,0.11971009,0.13886370,6.66066933,0.04474111,-0.23009712,0.00852212
1691768709125493,0.21068975,0.03351882,6.64630413,0.02769688,-0.26631612,-0.01065264
1691768709127532,0.11013328,0.07182605,6.59363127,0.04261058,-0.21731395,0.00106526
1691768709129526,0.04788403,0.16759412,6.36378813,0.06178534,-0.22157501,-0.00745685
1691768709131496,0.08619126,0.18674773,6.49786329,0.03728426,-0.20346551,-0.00426106
1691768709133500,0.01915361,0.06224924,6.43082571,0.04687164,-0.17150757,-0.00106526
1691768709135480,-0.03351882,0.23942018,6.16267538,0.03302320,-0.15765914,-0.00426106
1691768709137518,-0.07182605,0.22984336,6.31111574,0.02130529,-0.13422331,-0.00852212
1691768709139514,-0.11971009,-0.01436521,6.38773012,0.04900216,-0.12144014,-0.00106526
1691768709141763,-0.12449849,0.33039984,6.18182898,0.04580637,-0.11717909,-0.01384844
1691768709143503,-0.18674773,0.08619126,6.42124891,0.07243798,-0.10013486,0.00000000
1691768709145475,-0.16280572,-0.06224924,6.44519091,0.07030746,-0.09161274,0.00213053
1691768709147509,-0.14365210,0.20111294,6.27759695,0.05113269,-0.09267800,-0.00426106
1691768709149485,-0.14365210,0.19153613,6.35899973,0.06604639,-0.10226539,0.01491370
1691768709151489,-0.18195933,-0.08140286,6.60799646,0.05219796,-0.08628642,0.02556635
1691768709153521,-0.07661445,0.30166942,6.45955610,0.05326322,-0.09906960,-0.00319579
1691768709155483,-0.08619126,0.15801731,6.52659369,0.04154531,-0.09374327,0.00532632
1691768709157529,-0.08140286,0.00000000,6.75643730,0.02237055,-0.08415589,0.01384844
1691768709159483,-0.10055647,0.07182605,6.63193893,0.04048005,-0.08735169,0.01065264
1691768709161478,-0.11492168,0.22026655,6.59363127,0.05858954,-0.07137272,0.00532632
1691768709163484,-0.27293900,0.00957681,6.50265169,0.05219796,-0.05645901,0.01278317
1691768709165462,-0.24899697,0.15322891,6.41167212,0.05006743,-0.04900216,0.01171791
1691768709167479,-0.22026655,0.14844051,6.53617048,0.07776430,-0.04367584,0.00213053
1691768709169553,-0.27293900,0.02873042,6.74207211,0.10120012,-0.03621899,0.00000000
1691768709171548,-0.26336220,0.22505496,6.68461132,0.09374327,-0.02982740,0.00426106
1691768709173498,-0.12449849,0.21068975,6.79474449,0.09267800,-0.03834952,0.01278317
1691768709175458,-0.19632454,0.11013328,6.98628044,0.10546118,-0.03834952,0.00532632
1691768709177542,-0.15801731,0.23463176,6.92881966,0.12144014,-0.02769688,0.00000000
1691768709179497,0.00478840,0.24420857,7.08204842,0.10865697,-0.04048005,0.00532632
1691768709181545,-0.16759412,0.00957681,7.20654726,0.08948221,-0.04687164,-0.00426106
1691768709183482,-0.09097967,0.04788403,7.17781687,0.06817693,-0.04474111,-0.00319579
1691768709185458,0.07661445,0.07182605,7.32146883,0.02237055,-0.04367584,-0.01491370
1691768709187545,0.10055647,-0.03830723,7.50342798,-0.00745685,-0.04687164,-0.02343582
1691768709189519,-0.07661445,-0.03830723,7.49863958,-0.03302320,-0.04580637,-0.01704423
1691768709191483,0.03830723,0.09576806,7.55610037,-0.04687164,-0.03408846,-0.01278317
1691768709193486,0.02873042,0.03351882,7.69975281,-0.04580637,-0.03195793,-0.00745685
1691768709195484,-0.15801731,0.05267244,7.70932961,-0.04367584,-0.02663161,-0.00745685
1691768709197525,0.02873042,0.18674773,7.67102242,-0.03728426,-0.02663161,-0.00745685
1691768709199482,-0.10534488,0.09576806,7.79073238,-0.02982740,-0.02343582,-0.01065264
1691768709201470,0.01436521,0.07661445,7.83382797,-0.02769688,-0.00745685,-0.01278317
1691768709203503,0.05267244,0.12928689,7.90086555,-0.02876214,-0.01597897,-0.00319579
1691768709205485,-0.10534488,0.03351882,7.97269154,-0.02769688,-0.00319579,0.00745685
1691768709207484,0.06703765,0.17717093,7.95353794,-0.01491370,-0.00532632,0.01917476
1691768709209477,0.01436521,0.16280572,8.04451752,-0.01810949,-0.00639159,0.02982740
1691768709211500,-0.13407530,0.03830723,8.13070869,-0.02450108,0.00213053,0.01491370
1691768709213506,0.05267244,0.25378537,8.16422749,-0.02556635,0.00106526,-0.00532632
1691768709215530,-0.06224924,0.16280572,8.24563026,-0.02343582,0.01491370,-0.00532632
1691768709217483,-0.15801731,0.04309563,8.33182144,-0.02024002,0.01171791,0.00532632
1691768709219662,0.07182605,0.23463176,8.36055279,-0.02876214,0.01704423,0.00426106
1691768709221532,-0.11971009,0.06224924,8.48983955,-0.04580637,0.02982740,0.01278317
1691768709223511,-0.07182605,0.01915361,8.55687714,-0.05645901,0.02982740,0.01278317
1691768709225456,0.09576806,0.18195933,8.58081913,-0.04900216,0.03834952,0.01491370
1691768709227472,-0.18674773,0.11971009,8.68616390,-0.03728426,0.05113269,0.01704423
1691768709229645,-0.04788403,0.19153613,8.70531750,-0.04261058,0.07243798,0.02556635
1691768709231488,-0.01915361,0.20111294,8.72447109,-0.03621899,0.07137272,0.02343582
1691768709233492,-0.28251579,0.08619126,8.80587387,-0.02556635,0.08202536,0.01171791
1691768709235478,-0.01436521,0.18195933,8.79150867,-0.01384844,0.09587380,-0.00319579
1691768709237736,-0.09576806,0.19153613,8.89206505,-0.00319579,0.09480853,-0.00319579
1691768709239526,-0.24420857,0.08140286,8.94473743,0.00532632,0.10865697,0.00426106
1691768709241498,0.03830723,0.32561144,8.92079544,0.01384844,0.11078750,0.00106526
1691768709243481,-0.06224924,0.31603462,9.01177502,0.01278317,0.11291803,-0.01065264
1691768709245410,-0.06224924,0.17238252,9.01656342,0.02982740,0.11930962,-0.01384844
1691768709247522,-0.01436521,0.17717093,9.01177502,0.02450108,0.12783173,-0.00958738
1691768709249456,-0.07661445,0.07182605,9.09796619,0.00106526,0.12144014,0.01278317
1691768709251479,-0.00957681,0.04309563,9.08360100,-0.00532632,0.12037488,0.02450108
1691768709253476,0.05267244,0.16759412,9.14106178,-0.00852212,0.11930962,0.02343582
1691768709255433,-0.12928689,-0.08619126,9.29429054,-0.02130529,0.10439591,0.02130529
1691768709257500,0.02873042,0.04309563,9.22725296,-0.02769688,0.09693906,0.01171791
1691768709259474,0.11971009,0.21068975,9.18894577,-0.03515373,0.09267800,0.01171791
1691768709261492,-0.00957681,0.01436521,9.36611748,-0.04154531,0.07882957,0.00745685
1691768709263507,0.17238252,0.09097967,9.34217548,-0.04580637,0.07776430,0.01810949
1691768709265467,0.02394202,0.11971009,9.42836666,-0.04900216,0.06817693,0.01171791
1691768709267478,-0.01915361,-0.05267244,9.48103905,-0.05326322,0.07030746,0.00745685
1691768709269523,0.19153613,0.18195933,9.40921307,-0.04474111,0.07137272,0.00532632
1691768709271501,-0.13407530,0.12449849,9.50498104,-0.04793690,0.07669904,0.01917476
1691768709273495,0.04309563,0.17238252,9.46667385,-0.05113269,0.07882957,0.02450108
1691768709275459,0.05746084,0.19632454,9.54807663,-0.05432849,0.07350325,0.02130529
1691768709277498,-0.05746084,-0.01436521,9.66778660,-0.05113269,0.07243798,0.01704423
1691768709279545,0.23942018,0.14844051,9.59117222,-0.04154531,0.07030746,0.00532632
1691768709281480,-0.04309563,0.12449849,9.74440098,-0.03941479,0.06178534,0.00745685
1691768709283482,0.23463176,0.12449849,9.71567059,-0.04900216,0.05006743,0.01065264
1691768709285470,0.11971009,0.23463176,9.71567059,-0.05113269,0.05113269,0.00958738
1691768709287538,0.02394202,-0.00478840,9.84974575,-0.05752428,0.04687164,0.01171791
1691768709289494,0.25378537,0.20111294,9.78270817,-0.06711166,0.04261058,0.01917476
1691768709291483,0.01436521,0.07661445,9.91199493,-0.08948221,0.03941479,0.01065264
1691768709293480,-0.00957681,-0.02873042,9.90241814,-0.09693906,0.03515373,0.01278317
1691768709295493,0.15322891,0.19632454,9.81622696,-0.09054748,0.03728426,0.01065264
1691768709297528,-0.22984336,0.11492168,9.95030212,-0.07137272,0.04048005,0.01491370
1691768709299478,0.12928689,0.24899697,9.80186176,-0.05645901,0.04793690,0.00852212
1691768709301483,-0.22505496,0.13407530,9.92636013,-0.02982740,0.05858954,0.01810949
1691768709303484,-0.06703765,0.06703765,9.95509052,-0.01491370,0.06391586,0.00958738
1691768709305490,0.14365210,0.18195933,9.87368774,-0.01917476,0.07882957,0.00532632
1691768709307486,-0.18195933,0.11492168,9.97424412,-0.02024002,0.09374327,0.00639159
1691768709309479,-0.03830723,0.12928689,9.84974575,-0.01278317,0.10226539,0.01171791
1691768709311479,-0.05746084,0.21068975,9.86411095,-0.00319579,0.10865697,0.01278317
1691768709313591,-0.05267244,0.14844051,9.93593693,-0.00319579,0.11185277,0.02237055
1691768709315466,-0.00957681,0.19153613,9.91678333,-0.00532632,0.11291803,0.03089267
1691768709317490,-0.08619126,0.11492168,10.06043530,-0.02343582,0.11611383,0.03728426
1691768709319521,-0.04788403,0.00957681,10.02212811,-0.04580637,0.11291803,0.02876214
1691768709321481,0.08140286,0.14844051,9.99339771,-0.05752428,0.10759171,0.02876214
1691768709323493,-0.03830723,-0.00478840,10.12747288,-0.06711166,0.09587380,0.02343582
1691768709325493,0.18674773,0.00000000,10.07480049,-0.08415589,0.09267800,0.02556635
1691768709327499,0.02873042,0.06224924,10.18493366,-0.09587380,0.08841695,0.01917476
1691768709329613,-0.02873042,-0.02394202,10.20408726,-0.08415589,0.08948221,0.01704423
1691768709331512,0.20590134,0.22026655,10.06522369,-0.06711166,0.08309063,0.01810949
1691768709333524,-0.17717093,0.18674773,10.21366405,-0.05752428,0.07989483,0.02450108
1691768709335478,0.15322891,0.20590134,10.09395409,-0.04900216,0.08309063,0.02663161
1691768709337572,0.06703765,0.25378537,10.17535686,-0.03089267,0.08948221,0.01491370
1691768709339534,-0.00478840,0.11492168,10.22324085,-0.02663161,0.10333065,0.01384844
1691768709341488,0.03351882,0.19632454,10.15620327,-0.02982740,0.10226539,0.01810949
1691768709343525,-0.17238252,0.18674773,10.22802925,-0.03302320,0.09693906,0.01810949
1691768709345482,0.06703765,0.19153613,10.12268448,-0.03621899,0.09267800,0.02024002
1691768709347565,0.05267244,0.22505496,10.19929886,-0.04580637,0.09374327,0.02130529
1691768709349528,-0.06224924,0.02873042,10.29506683,-0.04580637,0.09054748,0.01917476
1691768709351532,0.22984336,0.16280572,10.11789608,-0.05113269,0.08415589,0.00958738
1691768709353499,-0.14365210,0.17238252,10.26633644,-0.05752428,0.07882957,0.00852212
1691768709355560,0.05746084,0.16280572,10.14183807,-0.06498113,0.08415589,0.00426106
1691768709357510,0.07661445,0.21547815,10.12747288,-0.05432849,0.08948221,0.00852212
1691768709359483,0.03830723,0.19632454,10.06522369,-0.04261058,0.09374327,0.00639159
1691768709361535,0.24420857,0.16280572,10.02212811,-0.02982740,0.10120012,0.00213053
1691768709363604,-0.12449849,0.16280572,10.14662647,-0.02024002,0.11504856,0.00106526
1691768709365488,0.00000000,0.15801731,10.01255131,-0.02024002,0.12463594,0.00958738
1691768709367489,0.06703765,0.26815060,9.88805294,-0.01917476,0.13528858,0.01917476
1691768709369546,-0.16759412,0.11013328,10.03170490,-0.01171791,0.14487596,0.02237055
1691768709371550,0.18195933,0.13407530,9.85932255,-0.00745685,0.14168017,0.02663161
1691768709373510,-0.00478840,0.12928689,10.01733971,-0.02130529,0.13528858,0.03834952
1691768709375490,-0.04309563,0.03351882,9.97903252,-0.02663161,0.12783173,0.03728426
1691768709377560,0.24420857,0.24420857,9.80186176,-0.03941479,0.11398330,0.02876214
1691768709379552,-0.07661445,0.17717093,9.96945572,-0.03621899,0.10013486,0.01597897
1691768709381510,0.21547815,0.12928689,9.83059216,-0.03834952,0.08628642,0.00213053
1691768709383508,0.16280572,0.16280572,9.95030212,-0.04154531,0.07350325,-0.00426106
1691768709385476,-0.02873042,0.00957681,9.97424412,-0.03728426,0.06711166,-0.01065264
1691768709387545,0.30645782,0.20111294,9.81143856,-0.03621899,0.06498113,-0.01171791
1691768709389485,-0.13886370,0.20111294,10.00776291,-0.04154531,0.06178534,-0.01065264
1691768709391514,0.17717093,0.19153613,9.85932255,-0.03515373,0.06178534,-0.00745685
1691768709393579,0.18195933,0.18674773,9.91199493,-0.01491370,0.06072007,-0.01065264
1691768709395510,0.10055647,0.18674773,9.86411095,-0.01704423,0.06285060,-0.01704423
1691768709397582,0.34955344,0.18674773,9.84974575,-0.01810949,0.06072007,0.00319579
1691768709399500,-0.16280572,0.03351882,10.07958889,-0.01810949,0.05965481,0.01065264
1691768709401498,0.08619126,0.16759412,9.93593693,-0.01917476,0.05645901,0.01491370
1691768709403515,0.20111294,0.21068975,9.93593693,-0.03195793,0.05326322,0.01065264
1691768709405549,-0.17717093,0.01915361,10.07480049,-0.02982740,0.04580637,0.02663161
1691768709407510,0.33518824,0.09576806,9.84016895,-0.02450108,0.04261058,0.01278317
1691768709409487,-0.07661445,0.13407530,10.10353088,-0.02556635,0.03941479,0.01704423
1691768709411541,0.01915361,0.12928689,9.95030212,-0.03515373,0.03302320,0.01171791
1691768709413588,0.28251579,0.24899697,9.88326454,-0.03728426,0.02663161,0.00532632
1691768709415492,-0.18674773,0.13407530,10.01733971,-0.02876214,0.02556635,-0.00213053
1691768709417494,0.34476504,0.16280572,9.75876617,-0.02130529,0.02237055,0.00000000
1691768709419557,0.02394202,0.15801731,9.99339771,-0.01171791,0.02450108,-0.00639159
1691768709421553,-0.02873042,0.16759412,9.92157173,-0.00852212,0.02769688,-0.00958738
1691768709423568,0.28730419,0.24899697,9.81143856,-0.00958738,0.03195793,0.00000000
1691768709425465,-0.21547815,0.20111294,10.04607010,-0.01384844,0.03408846,0.00106526
1691768709427500,0.22026655,0.17717093,9.78749657,-0.01704423,0.03089267,0.00532632
1691768709429572,0.06224924,0.05746084,9.98382092,-0.00852212,0.02663161,0.00319579
1691768709431529,-0.11013328,0.01915361,9.97903252,-0.00745685,0.02663161,0.00426106
1691768709433518,0.33039984,0.16759412,9.90241814,-0.01704423,0.02024002,0.00106526
