timestamp,accel_x,accel_y,accel_z,gyro_x,gyro_y,gyro_z
1691756159796519,-0.58418524,0.00478840,9.83059216,-0.00319579,0.00319579,0.02024002
1691756159798509,-0.62728083,-0.03830723,9.84016895,0.00000000,-0.00639159,0.02876214
1691756159800561,-0.61291564,0.00957681,9.82101536,0.00639159,-0.00745685,0.02130529
1691756159802545,-0.63685763,-0.04788403,9.79707336,0.01065264,-0.00639159,-0.00319579
1691756159804529,-0.66079968,-0.13886370,9.83538055,0.00745685,-0.00319579,-0.02343582
1691756159806512,-0.61291564,-0.03351882,9.85453415,-0.00745685,0.00213053,-0.02982740
1691756159808493,-0.58418524,-0.02873042,9.84016895,-0.00213053,0.00106526,-0.01917476
1691756159810536,-0.64164603,-0.00957681,9.81622696,-0.00213053,0.00426106,0.00106526
1691756159812590,-0.56981999,0.01436521,9.81622696,-0.00213053,-0.00213053,0.02343582
1691756159814530,-0.58418524,-0.08140286,9.83538055,-0.00639159,-0.00639159,0.02769688
1691756159816541,-0.64164603,-0.15801731,9.80186176,0.00213053,-0.00639159,0.01065264
1691756159818496,-0.57939678,-0.00478840,9.81143856,-0.00106526,-0.00532632,-0.01278317
1691756159820612,-0.56981999,-0.04788403,9.84495735,0.01171791,0.00319579,-0.02663161
1691756159822509,-0.62728083,-0.11013328,9.82101536,0.00106526,0.00639159,-0.02450108
1691756159824525,-0.56503159,-0.01915361,9.80665016,-0.00639159,0.00532632,-0.00852212
1691756159826527,-0.54587799,-0.00957681,9.87368774,-0.00639159,0.00213053,0.01810949
1691756159828555,-0.62728083,-0.07182605,9.84495735,-0.00319579,0.00000000,0.02663161
1691756159830514,-0.56503159,-0.00478840,9.78270817,-0.00426106,-0.00213053,0.02237055
1691756159832516,-0.61291564,0.05746084,9.80186176,0.00000000,-0.00319579,0.01704423
1691756159834584,-0.66079968,-0.06224924,9.90720654,0.02663161,0.00532632,-0.05432849
1691756159836554,-0.57939678,-0.00957681,9.84016895,0.00213053,0.00319579,-0.08415589
1691756159838488,-0.57939678,0.00957681,9.90241814,0.07243798,0.01065264,-0.08628642
1691756159840534,-0.63685763,0.06224924,9.93593693,0.08948221,0.00852212,-0.00852212
1691756159842556,-0.57939678,0.07182605,9.84495735,-0.01597897,-0.00213053,0.08735169
1691756159844545,-0.57460839,-0.08619126,9.87847614,-0.05006743,-0.01278317,0.06817693
1691756159846517,-0.53151280,0.04309563,9.96466732,-0.04261058,-0.02024002,0.11291803
1691756159848521,-0.50278234,0.09097967,9.97424412,-0.06391586,-0.02663161,0.12144014
1691756159850599,-0.79008657,0.00478840,9.96466732,0.01917476,-0.04048005,0.09054748
1691756159852562,-0.96246910,0.06703765,10.03170490,0.01917476,-0.04580637,0.13102752
1691756159854599,-0.79487497,0.21068975,9.97903252,-0.00106526,-0.05965481,0.17896442
1691756159856510,-0.71347213,0.04788403,9.94072533,0.04793690,-0.09267800,0.20666130
1691756159858520,-0.92895025,-0.11971009,9.96466732,-0.02663161,-0.14594123,0.22796659
1691756159860529,-0.96246910,0.00000000,9.92157173,-0.05326322,-0.18109496,0.21518342
1691756159862533,-0.91458505,0.04309563,10.08437729,-0.04687164,-0.23542345,0.24607609
1691756159864569,-0.84275901,0.08619126,10.06522369,-0.01171791,-0.30360037,0.28336033
1691756159866522,-0.63206923,0.22984336,9.82101536,0.02024002,-0.37390780,0.27270770
1691756159868536,-0.60333884,0.04788403,10.06522369,0.02450108,-0.44954160,0.29720879
1691756159870523,-0.41659111,0.11971009,10.18014526,0.04261058,-0.50813115,0.29081720
1691756159872540,-0.27772740,0.08140286,10.22324085,0.05219796,-0.57204700,0.30466563
1691756159874520,-0.40222588,0.02873042,10.37647057,0.08841695,-0.62637550,0.29294771
1691756159876732,-0.11013328,0.25857377,10.49139214,0.08202536,-0.63489759,0.30146983
1691756159878499,-0.16759412,0.14844051,10.73560047,0.04793690,-0.63383234,0.27057716
1691756159880535,-0.11013328,0.09576806,10.70208168,0.00958738,-0.64448500,0.30253509
1691756159882550,-0.12449849,0.08619126,10.97980881,-0.01384844,-0.61891866,0.27483824
1691756159884557,-0.33039984,-0.13886370,11.31499767,-0.00852212,-0.60187441,0.29614350
1691756159886565,-0.11971009,0.07182605,11.22880554,-0.03834952,-0.57843858,0.29507825
1691756159888528,-0.35913026,0.06224924,11.56399441,-0.01384844,-0.56352490,0.31425300
1691756159890495,-0.27293900,-0.03830723,11.69328117,0.00745685,-0.55287224,0.30892667
1691756159892577,-0.17238252,0.22026655,11.75553036,0.00106526,-0.53582799,0.32170987
1691756159894688,-0.32082301,0.05746084,12.03804588,-0.01810949,-0.55713332,0.31425300
1691756159896517,-0.08619126,-0.04309563,11.96143150,0.02876214,-0.52943641,0.31744879
1691756159898521,-0.29209262,0.03351882,12.19127464,0.04793690,-0.50173956,0.30040458
1691756159900567,-0.16759412,-0.25378537,12.27267838,0.00426106,-0.50493532,0.30040458
1691756159902643,-0.01915361,-0.07661445,12.25831223,-0.02769688,-0.51132691,0.30573088
1691756159904524,-0.41180268,-0.20111294,12.44984913,-0.02130529,-0.45060685,0.30999196
1691756159906505,-0.20590134,-0.31124622,12.35408115,-0.02450108,-0.41651839,0.28975192
1691756159908504,-0.21068975,-0.01436521,12.42590714,-0.06817693,-0.43036684,0.30892667
1691756159910563,-0.37828386,-0.33518824,12.51209831,-0.06178534,-0.41864893,0.30573088
1691756159912544,-0.12928689,-0.10534488,12.47857952,-0.04580637,-0.40053943,0.25779399
1691756159914614,-0.14365210,-0.01915361,12.59828949,-0.04367584,-0.38136467,0.25566345
1691756159916587,-0.14365210,-0.22505496,12.62223148,-0.05432849,-0.40799627,0.27590349
1691756159918630,-0.11971009,0.00478840,12.63659668,-0.03408846,-0.40906155,0.23329291
1691756159920552,-0.13407530,-0.22026655,12.77546024,-0.00426106,-0.36645097,0.23861924
1691756159922545,0.05267244,0.12928689,12.69884586,0.00532632,-0.38029939,0.25140241
1691756159924542,-0.10534488,0.01436521,12.71321106,0.00000000,-0.38988680,0.23861924
1691756159926764,-0.18195933,-0.13407530,12.76109505,0.00106526,-0.34727621,0.23542345
1691756159928521,0.00000000,0.11971009,12.69884586,0.00426106,-0.33981934,0.22157501
1691756159930676,-0.18674773,-0.25378537,12.84249783,0.01278317,-0.33236250,0.21411815
1691756159932555,-0.04788403,-0.02873042,12.74672985,-0.01704423,-0.33555830,0.21305288
1691756159934614,-0.21068975,-0.23942018,12.79940224,-0.02876214,-0.33023196,0.18429075
1691756159936556,-0.24420857,-0.18674773,12.71321106,-0.01917476,-0.30040458,0.19600865
1691756159938543,-0.04788403,0.01436521,12.59828949,-0.00426106,-0.31318775,0.19174761
1691756159940563,-0.32082301,-0.30645782,12.74194145,-0.01384844,-0.32490566,0.20133498
1691756159942636,-0.11971009,-0.00478840,12.56955910,-0.02663161,-0.30466563,0.18642128
1691756159944591,-0.23942018,-0.25857377,12.59350109,-0.01597897,-0.28655612,0.17150757
1691756159946752,-0.14365210,-0.11492168,12.45463753,-0.01065264,-0.26312032,0.16085494
1691756159948543,-0.01436521,0.01436521,12.42111874,-0.04154531,-0.26738137,0.16831177
1691756159950593,-0.39743748,-0.33039984,12.53604031,-0.04367584,-0.26205504,0.15339808
1691756159952583,-0.02873042,0.01436521,12.18169785,-0.02237055,-0.23968449,0.14381070
1691756159954570,-0.17238252,-0.12449849,12.21521664,-0.00745685,-0.25992453,0.12357067
1691756159956533,-0.06703765,-0.00957681,12.08114147,0.01384844,-0.28229508,0.11504856
1691756159958522,0.00957681,0.12928689,12.07156467,0.02769688,-0.29614350,0.11717909
1691756159960524,-0.27772740,-0.11013328,12.10029507,0.02876214,-0.32597092,0.12357067
1691756159962566,0.13886370,0.15801731,11.87524033,0.03621899,-0.36005938,0.11185277
1691756159964534,-0.18195933,-0.01915361,12.02846909,0.03302320,-0.38882151,0.10013486
1691756159966605,-0.03830723,0.06224924,11.83693314,0.03302320,-0.39414784,0.07669904
1691756159968561,0.03830723,0.12449849,11.80341434,0.03621899,-0.38029939,0.07989483
1691756159970664,-0.21068975,-0.11492168,11.76031876,0.04154531,-0.38029939,0.08096009
1691756159972555,0.10534488,-0.03830723,11.51611042,0.02237055,-0.35260254,0.08096009
1691756159974591,-0.24420857,-0.10055647,11.63103199,0.00639159,-0.29401299,0.06498113
1691756159976577,-0.11013328,0.02873042,11.31020927,-0.00213053,-0.28549087,0.08202536
1691756159978524,-0.13886370,0.11013328,11.24317074,-0.01065264,-0.23329291,0.06924219
1691756159980538,-0.38786069,-0.05746084,11.27668953,-0.01171791,-0.24394555,0.06498113
1691756159982544,-0.01436521,-0.02394202,11.03248119,-0.02769688,-0.25566345,0.05006743
1691756159984627,-0.31603462,-0.14365210,11.17134476,-0.01384844,-0.25140241,0.07776430
1691756159986580,-0.18674773,-0.06224924,10.94150162,0.01278317,-0.22583605,0.06817693
1691756159988514,-0.07182605,0.21068975,10.86967564,0.04367584,-0.24288028,0.06924219
1691756159990560,-0.19632454,0.18195933,10.96065521,0.06604639,-0.24394555,0.07243798
1691756159992591,-0.01436521,0.20111294,10.54406452,0.09587380,-0.20985709,0.05219796
1691756159994561,-0.21547815,0.28251579,10.64940929,0.10652644,-0.18216021,0.01384844
1691756159996507,-0.23942018,0.14844051,10.55364132,0.08948221,-0.17044231,0.01171791
1691756159998531,-0.20590134,0.26336220,10.38604736,0.07882957,-0.13315806,0.01810949
1691756160000596,-0.21068975,0.11971009,10.43871975,0.06817693,-0.12037488,0.01278317
1691756160002608,-0.06224924,0.00478840,10.38125896,0.04048005,-0.11398330,0.02556635
1691756160004534,-0.15322891,0.14844051,10.40998936,0.04900216,-0.11824435,0.02130529
1691756160006559,-0.11492168,-0.08619126,10.37647057,0.06072007,-0.13954964,0.00319579
1691756160008514,-0.12928689,-0.07182605,10.29027843,0.05965481,-0.14913702,-0.02024002
1691756160010675,-0.14844051,0.14365210,10.31422138,0.06072007,-0.18855180,-0.01704423
1691756160012580,-0.01436521,-0.07661445,10.27112484,0.06178534,-0.19494340,-0.00532632
1691756160014541,0.12449849,0.11971009,10.17535686,0.06711166,-0.19387813,-0.00745685
1691756160016598,-0.11013328,-0.15801731,10.25197124,0.06604639,-0.18322548,-0.00532632
1691756160018599,0.05746084,0.07661445,10.17056847,0.06391586,-0.17470337,-0.00852212
1691756160020536,-0.06703765,0.18195933,10.09395409,0.05539375,-0.14594123,0.01704423
1691756160022539,-0.21547815,-0.07661445,10.14662647,0.05326322,-0.12144014,0.00426106
1691756160024659,-0.09576806,0.21547815,10.03170490,0.05539375,-0.08309063,0.00426106
1691756160026612,-0.16280572,0.12928689,10.07480049,0.04048005,-0.06711166,-0.01810949
1691756160028624,-0.29688102,-0.22984336,9.98382092,0.04367584,-0.04900216,-0.01065264
1691756160030557,-0.29688102,0.12928689,9.99818611,0.04261058,-0.01491370,-0.02024002
1691756160032752,-0.28730419,0.10055647,9.97903252,0.03941479,-0.00213053,-0.01171791
1691756160034613,-0.19153613,-0.11971009,9.87847614,0.05432849,0.03408846,0.00106526
1691756160036567,-0.27293900,0.22984336,9.88805294,0.06178534,0.03941479,0.00426106
1691756160038494,-0.21547815,0.16759412,9.92157173,0.07989483,0.05432849,-0.00639159
1691756160040535,-0.02873042,0.03351882,9.90241814,0.05113269,0.05645901,-0.00745685
1691756160042575,-0.08619126,0.13886370,9.95030212,0.02769688,0.02450108,-0.01171791
1691756160044576,-0.02394202,-0.07182605,9.92636013,0.01491370,-0.00106526,-0.01278317
1691756160046581,0.03351882,-0.03830723,9.98860931,0.00319579,-0.07456851,-0.03302320
1691756160048521,0.00478840,0.00478840,10.09874249,0.00532632,-0.13635385,-0.02237055
1691756160050678,0.25857377,-0.02394202,10.02212811,-0.01597897,-0.20346551,-0.03621899
1691756160052572,0.12928689,-0.01915361,10.13226128,-0.01278317,-0.25140241,-0.03941479
1691756160054607,0.13886370,-0.08619126,10.11789608,-0.01704423,-0.26418558,-0.02556635
1691756160056533,0.30166942,0.02873042,10.07001209,-0.00958738,-0.28868666,-0.03515373
1691756160058535,0.08619126,-0.06224924,10.14662647,-0.01171791,-0.30146983,-0.02130529
1691756160060638,0.20111294,0.02873042,9.96945572,0.00958738,-0.31957933,-0.03302320
1691756160062549,0.00478840,-0.03351882,10.01733971,0.00532632,-0.30146983,-0.02237055
1691756160064592,-0.11492168,-0.05267244,10.10353088,-0.01278317,-0.29401299,-0.04474111
1691756160066546,-0.03351882,0.04309563,10.00297451,0.02130529,-0.28229508,-0.02769688
1691756160068551,-0.24420857,-0.07182605,10.00297451,0.01384844,-0.23329291,-0.02556635
1691756160070584,-0.18674773,0.14365210,9.88326454,0.01597897,-0.20453078,-0.02556635
1691756160072617,-0.21547815,0.11013328,9.76834297,0.02663161,-0.13848437,-0.00852212
1691756160074549,-0.38307226,0.08140286,9.84016895,0.02876214,-0.09161274,-0.02663161
1691756160076563,-0.30645782,0.12928689,9.71567059,0.05006743,-0.04687164,-0.02769688
1691756160078520,-0.39264908,0.04309563,9.69651699,0.06178534,-0.00639159,-0.03408846
1691756160080559,-0.31603462,0.14365210,9.73961258,0.08202536,0.00319579,-0.02663161
1691756160082546,-0.36870706,-0.04309563,9.76355457,0.05965481,0.02556635,-0.01597897
1691756160084618,-0.43095630,0.12449849,9.84016895,0.06285060,0.01491370,-0.02024002
1691756160086577,-0.34476504,0.07661445,9.74440098,0.07456851,0.00639159,-0.00213053
1691756160088504,-0.26815060,0.07182605,9.82580376,0.06817693,-0.01278317,-0.00426106
1691756160090557,-0.23463176,0.11492168,9.90720654,0.07456851,-0.01597897,-0.00745685
1691756160092516,-0.00957681,0.07182605,9.70130539,0.06391586,0.01065264,0.00639159
1691756160094641,-0.07661445,0.16280572,9.76355457,0.06924219,0.00958738,0.00213053
1691756160096518,-0.10055647,0.10534488,9.75876617,0.06391586,0.04048005,0.00426106
1691756160098519,-0.04309563,0.01915361,9.60074902,0.06072007,0.08522116,-0.01917476
1691756160100599,-0.26336220,0.00478840,9.77313137,0.05219796,0.13422331,-0.02343582
1691756160102519,-0.29209262,0.01915361,9.63905621,0.04154531,0.14807175,-0.03834952
1691756160104617,-0.33039984,-0.03351882,9.55765343,0.07030746,0.18855180,-0.06391586
1691756160106516,-0.47405192,0.03351882,9.73961258,0.05645901,0.22264026,-0.06072007
1691756160108583,-0.28251579,0.11013328,9.59596062,0.04793690,0.23329291,-0.05326322
1691756160110553,-0.29209262,0.04788403,9.59117222,0.04580637,0.24288028,-0.05219796
1691756160112534,-0.38786069,0.03351882,9.68694019,0.05858954,0.24820662,-0.04048005
1691756160114520,-0.08619126,0.03351882,9.52413464,0.07776430,0.24501082,-0.04367584
1691756160116548,-0.15322891,-0.03351882,9.76834297,0.05858954,0.24288028,-0.03515373
1691756160118567,-0.20590134,-0.11013328,9.76834297,0.07989483,0.22477080,-0.04154531
1691756160120530,0.05746084,0.05746084,9.58638382,0.08202536,0.18961707,-0.02237055
1691756160122515,-0.17238252,0.08140286,9.89762974,0.07882957,0.16511598,-0.01704423
1691756160124536,-0.02873042,0.11013328,9.78749657,0.06604639,0.13848437,-0.00213053
1691756160126701,0.15322891,0.12928689,9.69651699,0.05219796,0.09906960,-0.01597897
1691756160128516,-0.08140286,-0.10534488,9.92157173,0.03408846,0.07030746,-0.02450108
1691756160130526,0.14844051,0.06224924,9.80186176,0.02024002,0.05006743,-0.04154531
1691756160132533,-0.05267244,-0.00957681,9.90241814,0.02450108,0.03408846,-0.03834952
1691756160134689,-0.09576806,-0.03351882,9.92636013,0.00000000,0.02876214,-0.02982740
1691756160136526,0.11971009,0.22026655,9.80186176,-0.00213053,0.02769688,-0.02450108
1691756160138498,-0.10055647,0.00000000,9.97424412,0.00639159,0.05219796,-0.01278317
1691756160140517,0.01915361,0.04788403,9.82580376,0.00213053,0.07456851,-0.01491370
1691756160142578,-0.02873042,-0.06703765,9.76834297,0.01917476,0.09480853,-0.01065264
1691756160144514,-0.16759412,-0.15801731,9.89284134,0.00852212,0.10333065,-0.02450108
1691756160146529,-0.05267244,0.03351882,9.73003578,0.03195793,0.12676647,-0.02876214
1691756160148495,-0.20590134,-0.00478840,9.82580376,0.03728426,0.13422331,-0.03941479
1691756160150582,-0.15801731,0.11492168,9.82580376,0.03728426,0.12250541,-0.03728426
1691756160152559,-0.08140286,0.21547815,9.73003578,0.03302320,0.11398330,-0.02556635
1691756160154521,-0.18674773,0.16280572,9.93114853,0.04367584,0.10013486,-0.03302320
1691756160156531,0.02873042,0.21547815,9.83059216,0.05219796,0.11398330,-0.03834952
1691756160158509,0.01915361,0.06224924,9.87368774,0.05006743,0.09374327,-0.04687164
1691756160160559,-0.07661445,-0.02873042,10.03170490,0.05965481,0.06604639,-0.04793690
1691756160162554,0.04788403,0.08619126,9.89762974,0.05752428,0.07563377,-0.05752428
1691756160164520,-0.11971009,-0.01915361,10.03649330,0.04261058,0.07350325,-0.05965481
1691756160166616,-0.02873042,0.07182605,10.01255131,0.03515373,0.07456851,-0.05432849
1691756160168513,0.04309563,0.11013328,9.98382092,0.03834952,0.07989483,-0.05752428
1691756160170561,-0.09576806,0.02873042,10.19929886,0.02876214,0.07989483,-0.06178534
1691756160172527,0.09576806,0.18195933,10.05085850,-0.00213053,0.08096009,-0.05326322
1691756160174566,-0.03830723,-0.03830723,10.09874249,-0.01384844,0.07882957,-0.04367584
1691756160176585,-0.07182605,0.02394202,10.17535686,-0.01597897,0.07776430,-0.05113269
1691756160178544,0.05267244,0.16280572,10.06522369,-0.01810949,0.06924219,-0.05113269
1691756160180527,-0.14844051,-0.17717093,10.21845245,-0.02237055,0.08841695,-0.03728426
1691756160182542,-0.02873042,-0.02394202,10.08437729,-0.01065264,0.10652644,-0.02663161
1691756160184599,-0.06703765,0.02394202,10.01733971,-0.00319579,0.11930962,-0.01384844
1691756160186554,-0.18674773,0.03830723,10.13226128,-0.00213053,0.15339808,-0.01171791
1691756160188516,-0.04788403,0.18674773,9.95030212,0.00852212,0.17363811,-0.00639159
1691756160190542,-0.13407530,0.00000000,9.98382092,0.01065264,0.19600865,-0.02130529
1691756160192578,-0.13407530,0.16280572,9.98860931,0.01278317,0.19707392,-0.02769688
1691756160194618,-0.10534488,0.18195933,9.89762974,0.02237055,0.17576863,-0.04474111
1691756160196539,-0.20111294,-0.07182605,10.06043530,0.02343582,0.16192019,-0.04580637
1691756160198530,-0.02394202,0.08619126,10.01255131,0.02663161,0.14913702,-0.04474111
1691756160200550,-0.00478840,0.08619126,9.99339771,0.01810949,0.10226539,-0.03408846
1691756160202730,-0.06703765,0.04309563,10.10831928,0.01810949,0.07243798,-0.02663161
1691756160204523,0.09097967,0.22026655,10.02691650,0.01065264,0.05965481,-0.03515373
1691756160206555,0.07182605,-0.01915361,10.09395409,0.00852212,0.02556635,-0.03302320
1691756160208564,0.09576806,0.04309563,10.08916569,0.00000000,0.01597897,-0.03728426
1691756160210534,0.07661445,0.00000000,10.06043530,-0.00639159,0.01597897,-0.03195793
1691756160212560,0.00000000,-0.22505496,10.11789608,-0.01278317,0.01597897,-0.03941479
1691756160214545,0.09576806,0.05746084,9.96466732,-0.02769688,0.01278317,-0.03195793
1691756160216555,-0.09576806,-0.05267244,10.02691650,-0.03408846,0.02024002,-0.03408846
1691756160218574,-0.04788403,-0.05746084,10.01255131,-0.03515373,0.01171791,-0.03515373
1691756160220564,-0.00478840,0.04309563,9.94551373,-0.04580637,0.00106526,-0.03728426
1691756160222528,-0.10055647,-0.03351882,9.95987892,-0.05006743,-0.00106526,-0.02130529
1691756160224642,-0.09097967,-0.14844051,9.96945572,-0.04367584,-0.00958738,-0.02769688
1691756160226580,0.08140286,0.15322891,9.91199493,-0.03621899,-0.00639159,-0.01704423
1691756160228632,-0.04788403,-0.04309563,10.04607010,-0.02450108,-0.00532632,-0.00106526
1691756160230529,0.01436521,0.04309563,9.90241814,-0.01597897,-0.01065264,-0.00106526
1691756160232564,-0.06224924,0.05746084,9.93114853,-0.00852212,0.00532632,-0.01278317
1691756160234585,-0.16280572,-0.15801731,10.02691650,-0.00745685,0.02237055,-0.01491370
1691756160236545,-0.10534488,0.13886370,9.84495735,-0.01065264,0.03408846,-0.01065264
1691756160238512,-0.22984336,-0.00478840,9.94551373,-0.02556635,0.03515373,-0.02024002
1691756160240553,-0.12928689,-0.04788403,9.95030212,-0.02450108,0.04580637,-0.02450108
1691756160242596,-0.22505496,0.02873042,9.95987892,-0.02556635,0.07137272,-0.01597897
1691756160244584,-0.14365210,-0.09576806,10.04128170,-0.02024002,0.06924219,-0.01491370
1691756160246531,-0.09097967,0.00957681,10.00297451,-0.01171791,0.06711166,-0.01384844
1691756160248606,-0.19153613,0.09576806,9.99818611,-0.00106526,0.05752428,0.00213053
1691756160250799,-0.09097967,-0.00478840,9.99339771,-0.01491370,0.05752428,0.00639159
1691756160252574,-0.04788403,0.11492168,10.01255131,-0.02237055,0.03941479,0.01171791
1691756160254549,-0.19153613,-0.01436521,10.06043530,-0.02982740,0.03621899,0.00958738
1691756160256538,-0.05267244,-0.06703765,10.06043530,-0.03834952,0.02556635,0.00319579
1691756160258524,0.03351882,0.17717093,10.00776291,-0.03302320,0.01065264,-0.01065264
1691756160260597,-0.08140286,-0.10055647,10.09395409,-0.04048005,0.00958738,-0.01597897
1691756160262662,-0.05267244,0.00478840,10.02212811,-0.03408846,0.00639159,-0.02343582
1691756160264523,-0.00957681,0.01915361,10.06043530,-0.02876214,0.00426106,-0.00958738
1691756160266529,-0.16759412,-0.11013328,10.06043530,-0.02237055,0.01384844,-0.01704423
1691756160268546,-0.09576806,0.19632454,9.91678333,-0.03089267,0.02130529,0.00958738
1691756160270569,-0.10055647,0.06703765,9.99339771,-0.01917476,0.02556635,0.00106526
1691756160272525,0.02873042,0.06224924,9.92157173,-0.00745685,0.02876214,0.02769688
1691756160274560,-0.22984336,0.03830723,10.03649330,-0.00426106,0.02769688,0.01810949
1691756160276646,-0.09576806,-0.04788403,10.09874249,-0.01491370,0.01065264,0.02982740
1691756160278527,-0.00957681,0.15322891,9.96466732,-0.04154531,-0.00852212,0.03408846
1691756160280515,-0.24420857,-0.01915361,10.05085850,-0.03941479,-0.02343582,0.03941479
1691756160282538,0.04309563,0.00000000,10.06043530,-0.05326322,-0.05113269,0.01384844
1691756160284556,0.02873042,0.12928689,10.07480049,-0.06817693,-0.06924219,0.00532632
1691756160286543,-0.08140286,-0.18195933,10.16099167,-0.07669904,-0.09054748,-0.00319579
1691756160288522,0.07661445,0.00000000,10.07480049,-0.07243798,-0.10333065,-0.00213053
1691756160290526,-0.04788403,0.10055647,10.14183807,-0.07350325,-0.11078750,0.00852212
1691756160292705,-0.06703765,-0.11971009,10.19929886,-0.07563377,-0.12037488,0.01917476
1691756160294621,0.04788403,-0.07182605,10.05564690,-0.05539375,-0.11611383,0.00852212
1691756160296543,-0.07661445,0.05746084,10.14662647,-0.04580637,-0.11291803,0.00745685
1691756160298601,0.06703765,0.03351882,10.12747288,-0.04261058,-0.10546118,0.01065264
1691756160300559,0.00478840,0.11971009,10.08916569,-0.04367584,-0.09800433,0.00745685
1691756160302650,-0.03830723,0.00000000,10.11310768,-0.03302320,-0.09693906,-0.00213053
1691756160304547,-0.01915361,0.09576806,9.94072533,-0.03302320,-0.09693906,-0.00958738
1691756160306553,-0.16280572,0.06703765,10.00776291,-0.03728426,-0.09906960,-0.00426106
1691756160308539,-0.11492168,-0.11492168,9.97424412,-0.03302320,-0.08948221,0.00000000
1691756160310555,-0.10055647,-0.05746084,9.85453415,-0.02556635,-0.08735169,0.00532632
1691756160312558,-0.05746084,-0.01436521,9.94072533,-0.01597897,-0.09480853,0.00639159
1691756160314571,0.02873042,0.05746084,9.90241814,-0.01278317,-0.09480853,0.01278317
1691756160316584,-0.08619126,0.10055647,9.94072533,-0.01384844,-0.08628642,0.00639159
1691756160318529,-0.05746084,0.02873042,9.95509052,-0.03408846,-0.07563377,0.00639159
1691756160320553,-0.11013328,0.00957681,9.88326454,-0.04261058,-0.07137272,0.01810949
1691756160322543,-0.23942018,-0.10534488,9.99818611,-0.04261058,-0.06285060,0.01491370
1691756160324542,-0.08619126,-0.16280572,9.98382092,-0.05539375,-0.05113269,0.00639159
1691756160326600,-0.11971009,-0.04788403,10.00297451,-0.06817693,-0.04687164,0.00532632
1691756160328512,-0.09576806,0.00000000,10.02212811,-0.07243798,-0.05432849,0.00852212
1691756160330524,-0.06703765,0.07182605,9.97903252,-0.05219796,-0.05645901,-0.01065264
1691756160332529,-0.16280572,0.07661445,10.08437729,-0.04367584,-0.06711166,-0.00106526
1691756160334574,-0.03351882,0.07182605,10.03170490,-0.03089267,-0.08735169,0.00000000
1691756160336565,-0.15801731,0.06703765,10.02212811,-0.03515373,-0.10120012,0.00532632
1691756160338527,-0.14365210,-0.08140286,10.00297451,-0.03302320,-0.10333065,0.01491370
1691756160340583,-0.08619126,0.12928689,9.93114853,-0.02556635,-0.10013486,0.02130529
1691756160342554,-0.16280572,0.01915361,9.99818611,-0.01491370,-0.09587380,0.01917476
1691756160344591,-0.01915361,-0.03830723,9.90720654,0.00745685,-0.09587380,0.01917476
1691756160346542,-0.07661445,0.24420857,9.91678333,0.01171791,-0.10013486,0.02769688
1691756160348524,-0.18195933,0.04309563,10.00776291,0.00745685,-0.10759171,0.02237055
1691756160350537,-0.04788403,0.00957681,9.98860931,-0.01171791,-0.11078750,0.02663161
1691756160352539,-0.18674773,-0.22026655,10.00776291,-0.02876214,-0.11504856,0.02450108
1691756160354571,-0.01915361,0.03351882,9.98382092,-0.03195793,-0.11078750,0.01810949
1691756160356647,-0.08619126,0.05267244,9.97424412,-0.04048005,-0.10120012,0.02556635
1691756160358536,-0.15322891,-0.11013328,9.97903252,-0.05965481,-0.07350325,0.02556635
1691756160360562,0.01915361,0.08619126,9.97903252,-0.06072007,-0.06498113,0.03302320
1691756160362535,-0.32561144,-0.19632454,10.03170490,-0.05965481,-0.05432849,0.01810949
1691756160364516,-0.15801731,-0.06703765,10.02212811,-0.06604639,-0.05006743,0.01278317
1691756160366539,-0.07661445,0.08619126,9.92636013,-0.07137272,-0.06178534,0.00958738
1691756160368519,-0.33997664,-0.15801731,10.00776291,-0.06604639,-0.06072007,0.00852212
1691756160370638,-0.15322891,0.04309563,9.88805294,-0.06285060,-0.06285060,0.02663161
1691756160372540,-0.19153613,0.00000000,9.96945572,-0.05113269,-0.03834952,0.03195793
1691756160374596,-0.22505496,-0.17238252,9.93114853,-0.04154531,-0.01917476,0.03195793
1691756160376567,0.01436521,0.15322891,9.73482418,-0.02556635,0.00958738,0.02130529
1691756160378616,-0.19153613,0.01436521,9.77791977,-0.02024002,0.02769688,0.02556635
1691756160380535,-0.09576806,0.10055647,9.74440098,-0.01171791,0.03195793,0.02769688
1691756160382554,-0.03351882,0.21547815,9.70130539,-0.00532632,0.04048005,0.03089267
1691756160384569,-0.27772740,-0.04309563,9.83059216,0.00745685,0.04367584,0.03621899
1691756160386572,-0.09097967,0.17717093,9.69172859,0.00852212,0.03728426,0.04474111
1691756160388515,-0.17717093,0.07182605,9.77313137,0.01065264,0.03302320,0.04793690
1691756160390714,-0.20111294,-0.17717093,9.83059216,0.00745685,0.02343582,0.03834952
1691756160392563,-0.01436521,0.14365210,9.79228497,-0.00426106,0.02024002,0.03089267
1691756160394553,-0.10534488,-0.02394202,9.87368774,-0.01810949,0.01491370,0.03408846
1691756160396596,-0.01915361,0.05746084,9.80186176,-0.02450108,0.01384844,0.02343582
1691756160398515,0.06703765,0.20111294,9.80186176,-0.02130529,0.00532632,0.01065264
1691756160400560,-0.09576806,-0.16759412,9.93593693,-0.02024002,-0.01171791,0.00319579
1691756160402539,0.09097967,0.03351882,9.82101536,-0.02663161,-0.03621899,0.00958738
1691756160404539,-0.08619126,-0.09576806,9.91678333,-0.02237055,-0.05326322,0.00213053
1691756160406536,0.11971009,0.04309563,9.91199493,-0.02343582,-0.06924219,0.01171791
1691756160408511,0.14844051,0.21068975,9.92636013,-0.02556635,-0.08096009,0.02556635
1691756160410496,-0.07182605,0.02873042,10.06522369,-0.03089267,-0.07563377,0.03621899
1691756160412587,-0.55066639,-0.72304893,9.99339771,-0.00958738,-0.04154531,0.03834952
1691756160414521,-0.83318222,-0.92895025,10.01733971,0.00532632,-0.01491370,0.04687164
1691756160416575,-0.60333884,-0.80445176,9.78749657,0.02343582,0.02343582,0.04261058
1691756160418530,-0.67516488,-0.58418524,9.79228497,0.01810949,0.05432849,0.04261058
1691756160420552,-0.70389527,-0.61770403,9.77313137,0.01704423,0.07776430,0.03621899
1691756160422525,-0.38307226,-0.44053310,9.68694019,0.01491370,0.09161274,0.04900216
1691756160424555,-0.45489833,-0.35913026,9.74918938,0.01065264,0.10865697,0.03728426
1691756160426736,-0.37349546,-0.33039984,9.72524738,0.00852212,0.10013486,0.04154531
1691756160428517,-0.27772740,0.07661445,9.58638382,0.00426106,0.08415589,0.02130529
1691756160430532,-0.45489833,-0.18195933,9.68694019,-0.00319579,0.07350325,0.02450108
1691756160432722,-0.26815060,-0.06703765,9.58159542,-0.00106526,0.05752428,0.01810949
1691756160434592,-0.14365210,0.07661445,9.64863300,0.02130529,0.02663161,0.02663161
1691756160436619,-0.19632454,-0.26815060,9.66299820,0.02343582,0.02769688,0.02663161
1691756160438529,-0.08140286,0.22026655,9.55765343,0.01917476,0.01278317,0.02024002
1691756160440551,-0.05746084,0.06703765,9.60553741,0.00958738,0.00532632,0.02343582
1691756160442575,-0.03351882,0.00957681,9.54807663,-0.00213053,0.01171791,0.01171791
1691756160444554,0.00478840,0.24420857,9.44752026,-0.00745685,0.02556635,0.01491370
1691756160446539,-0.13886370,-0.09097967,9.61511421,-0.00745685,0.02769688,0.01171791
1691756160448499,-0.15801731,0.00957681,9.51455784,-0.00106526,0.04580637,0.03195793
1691756160450565,-0.31603462,0.07661445,9.44752026,-0.00319579,0.06711166,0.03408846
1691756160452551,-0.30166942,-0.24899697,9.49061584,0.01065264,0.08735169,0.03089267
1691756160454524,-0.22026655,0.06703765,9.43794346,0.01704423,0.11611383,0.02556635
1691756160456528,-0.33997664,0.10055647,9.51934624,0.03408846,0.13741912,0.02130529
1691756160458549,-0.24899697,0.08140286,9.53371143,0.04580637,0.14168017,0.01171791
1691756160460645,-0.26815060,0.34476504,9.52892303,0.06711166,0.14168017,0.01704423
1691756160462526,-0.28251579,0.05746084,9.63905621,0.05539375,0.13848437,0.03941479
1691756160464548,-0.11971009,0.09576806,9.69172859,0.04154531,0.13528858,0.03941479
1691756160466535,-0.21068975,0.09097967,9.75397778,0.03621899,0.11717909,0.03408846
1691756160468550,-0.09097967,-0.14365210,9.76355457,0.02982740,0.10226539,0.02876214
1691756160470540,-0.05746084,0.12449849,9.84495735,0.02130529,0.08415589,0.02237055
1691756160472542,-0.11971009,-0.02394202,9.97424412,0.01597897,0.06711166,0.02237055
1691756160474533,0.01436521,0.04309563,9.95987892,0.00426106,0.04580637,0.01491370
1691756160476525,-0.11492168,0.22984336,10.08437729,0.01597897,0.01065264,0.00106526
1691756160478533,-0.03830723,0.07661445,10.10831928,0.03515373,-0.00319579,0.00852212
1691756160480529,0.00000000,0.19632454,10.09874249,0.02769688,-0.01171791,0.00213053
1691756160482552,-0.16759412,-0.04788403,10.12747288,0.01704423,-0.01491370,-0.00106526
1691756160484568,-0.01915361,-0.09576806,10.02212811,0.03195793,-0.02024002,0.00213053
1691756160486571,-0.17717093,0.09097967,10.12747288,0.05752428,-0.01704423,0.01810949
1691756160488508,-0.14844051,0.11971009,10.07480049,0.05858954,-0.01278317,0.02343582
1691756160490538,-0.04309563,0.24899697,9.99339771,0.05965481,-0.01704423,0.02769688
1691756160492574,-0.22026655,0.10534488,10.09395409,0.02982740,-0.02343582,0.02130529
1691756160494684,-0.00957681,0.06703765,9.99339771,0.02556635,-0.04048005,0.02237055
1691756160496536,-0.22984336,0.09576806,10.19451046,0.02769688,-0.06072007,0.01597897
1691756160498524,-0.19632454,0.01436521,10.07958889,0.02769688,-0.06391586,0.01278317
1691756160500628,-0.00957681,0.03830723,10.04607010,0.01704423,-0.07456851,0.01491370
1691756160502540,-0.22026655,-0.01436521,10.22324085,0.00958738,-0.07456851,0.01171791
1691756160504592,-0.09576806,0.11971009,10.04128170,0.00106526,-0.04154531,0.01171791
1691756160506538,-0.21547815,0.12928689,10.07958889,-0.00213053,-0.01491370,0.00958738
1691756160508514,-0.26336220,0.12928689,10.01733971,0.00106526,0.02130529,0.01917476
1691756160510577,-0.10055647,0.14365210,9.84016895,0.00639159,0.05752428,0.00745685
1691756160512552,-0.37828386,0.06224924,10.03649330,-0.00426106,0.10439591,0.00532632
1691756160514533,-0.26815060,0.19153613,9.83538055,-0.00532632,0.12783173,0.01491370
1691756160516474,-0.29688102,0.11971009,9.87847614,-0.00106526,0.14700650,0.02130529
1691756160518537,-0.51714754,-0.01915361,9.95987892,0.00213053,0.15020229,0.01171791
1691756160520604,-0.22026655,0.06703765,9.71088219,0.00639159,0.15126754,0.00745685
1691756160522642,-0.44053310,-0.00957681,9.92636013,0.01917476,0.14807175,0.00958738
1691756160524559,-0.35913026,0.08619126,9.83059216,0.03195793,0.14487596,0.02237055
1691756160526634,-0.07661445,0.29209262,9.77791977,0.03089267,0.12357067,0.02343582
1691756160528551,-0.27293900,0.15322891,9.99339771,0.04261058,0.11291803,0.01917476
1691756160530600,0.02394202,0.22026655,9.74918938,0.05858954,0.10759171,0.02024002
1691756160532565,-0.15322891,0.18195933,9.93114853,0.05645901,0.09800433,0.00106526
1691756160534573,-0.29209262,-0.01915361,9.93593693,0.05219796,0.09906960,-0.00852212
1691756160536555,-0.11971009,0.11492168,9.76355457,0.05645901,0.10226539,-0.00852212
1691756160538469,-0.37349546,0.01915361,9.93114853,0.05752428,0.13528858,0.00000000
1691756160540568,-0.17238252,0.05746084,9.67257500,0.05432849,0.19174761,-0.00213053
1691756160542578,-0.19632454,0.20590134,9.65342140,0.05326322,0.22796659,0.00639159
1691756160544557,-0.34476504,0.04309563,9.74440098,0.05858954,0.23968449,0.00958738
1691756160546533,-0.10055647,0.22505496,9.60074902,0.05752428,0.22370553,0.00958738
1691756160548515,-0.22984336,0.18674773,9.80665016,0.07456851,0.19281286,0.00000000
1691756160550562,-0.06224924,0.11013328,9.73482418,0.07243798,0.15765914,-0.00319579
1691756160552565,-0.00478840,0.27293900,9.68215179,0.08948221,0.10013486,-0.01278317
1691756160554531,-0.17238252,-0.00957681,9.85932255,0.08309063,0.05858954,-0.00106526
1691756160556523,0.11492168,0.05267244,9.72524738,0.07030746,0.03941479,-0.02024002
1691756160558511,0.05746084,-0.03351882,9.83538055,0.04580637,-0.01171791,-0.02024002
1691756160560561,0.12449849,-0.03351882,9.84495735,0.02237055,-0.01597897,-0.02024002
1691756160562672,0.13407530,0.03351882,9.79707336,0.00319579,-0.00958738,-0.03302320
1691756160564530,0.03351882,0.00478840,9.89284134,-0.00745685,0.00106526,-0.02024002
1691756160566603,0.07661445,0.13886370,9.76834297,-0.00106526,-0.00106526,0.01065264
1691756160568540,-0.21547815,0.01436521,9.80186176,-0.01704423,0.04687164,0.03195793
1691756160570597,-0.12449849,0.02873042,9.72045898,-0.00958738,0.06285060,0.01171791
1691756160572531,-0.18195933,-0.05267244,9.69172859,0.00958738,0.07243798,0.01171791
1691756160574588,-0.32082301,0.02394202,9.73482418,0.02556635,0.10865697,-0.00639159
1691756160576743,-0.20590134,0.14844051,9.64384460,0.05326322,0.10652644,-0.02130529
1691756160578552,-0.36870706,0.21547815,9.76355457,0.06498113,0.12996227,-0.03302320
1691756160580566,-0.17717093,0.30166942,9.61511421,0.08202536,0.13741912,-0.02130529
1691756160582760,-0.15801731,0.14844051,9.62469101,0.10759171,0.15020229,-0.02237055
1691756160584571,-0.22026655,0.11971009,9.72045898,0.12357067,0.12889700,-0.00106526
1691756160586551,-0.09576806,0.14844051,9.60553741,0.11185277,0.12676647,-0.00106526
1691756160588506,-0.41180268,0.05267244,9.77791977,0.08522116,0.10439591,0.02450108
1691756160590553,-0.15322891,0.17717093,9.74440098,0.05965481,0.07030746,0.00745685
1691756160592612,-0.09097967,0.02873042,9.74440098,0.03515373,0.06924219,0.00319579
1691756160594582,-0.23463176,-0.05267244,9.84495735,0.03408846,0.03515373,-0.01171791
1691756160596606,0.09097967,0.15322891,9.79228497,0.01704423,0.02450108,-0.00639159
1691756160598511,-0.14365210,-0.05746084,9.95509052,0.01704423,0.01384844,-0.00639159
1691756160600602,-0.04309563,0.02394202,9.89284134,0.02024002,0.01384844,-0.01278317
1691756160602645,-0.02394202,-0.00957681,9.92636013,0.02130529,0.01171791,-0.00106526
1691756160604546,-0.32561144,-0.04309563,10.03649330,0.00106526,0.01597897,-0.02556635
1691756160606540,-0.04309563,0.11971009,9.83059216,-0.00745685,0.01810949,-0.02130529
1691756160608529,-0.18195933,-0.15322891,10.00776291,0.02024002,0.02769688,-0.03728426
1691756160610579,-0.09097967,0.05267244,10.01733971,0.02663161,0.02769688,-0.04048005
1691756160612533,0.00478840,0.08619126,10.02212811,0.04154531,0.02982740,-0.05006743
1691756160614596,-0.28730419,-0.02873042,10.17535686,0.05113269,0.03408846,-0.02663161
1691756160616590,-0.02394202,0.22505496,10.01733971,0.05965481,0.02769688,-0.01384844
1691756160618557,-0.21547815,-0.05267244,10.13704967,0.04154531,0.02769688,-0.00639159
1691756160620538,-0.16759412,0.00957681,10.17056847,0.04367584,0.01810949,-0.01384844
1691756160622531,-0.07661445,0.01436521,10.09395409,0.05326322,0.02982740,-0.02343582
1691756160624564,-0.34476504,-0.01915361,10.18972206,0.03728426,0.05539375,-0.03195793
1691756160626568,-0.13407530,0.25857377,9.98382092,0.03195793,0.09587380,-0.02450108
1691756160628535,-0.35434186,-0.01436521,10.02212811,0.04900216,0.15659387,-0.02237055
1691756160630535,-0.33997664,0.16759412,10.05085850,0.08948221,0.19813919,-0.03408846
1691756160632562,-0.18195933,0.20111294,9.93114853,0.10333065,0.20346551,-0.04474111
1691756160634620,-0.35913026,0.08140286,10.02212811,0.10333065,0.19920444,-0.04367584
1691756160636603,-0.17238252,0.16759412,9.86411095,0.10972223,0.19494340,-0.03621899
1691756160638518,-0.25857377,0.01436521,9.87368774,0.09161274,0.17896442,-0.04261058
1691756160640569,-0.18195933,0.10534488,9.93593693,0.06817693,0.13635385,-0.01278317
1691756160642609,-0.11971009,-0.05267244,9.92636013,0.04793690,0.11611383,-0.01704423
1691756160644556,-0.31124622,-0.16759412,9.89284134,0.04261058,0.09800433,-0.03195793
1691756160646544,-0.09576806,0.11971009,9.79707336,0.02876214,0.10759171,-0.03089267
1691756160648532,-0.21547815,-0.11971009,9.84016895,0.03728426,0.11824435,0.00000000
1691756160650643,-0.07182605,0.11013328,9.77791977,0.03941479,0.13741912,-0.01597897
1691756160652557,0.04309563,0.11492168,9.72524738,0.04793690,0.15659387,-0.01278317
1691756160654528,-0.16759412,-0.02873042,9.81622696,0.05432849,0.17576863,-0.02982740
1691756160656538,-0.06224924,0.25378537,9.70130539,0.04900216,0.18109496,-0.01278317
1691756160658519,-0.29209262,0.02873042,9.86411095,0.05113269,0.16618125,-0.05539375
1691756160660569,-0.22505496,0.12928689,9.74918938,0.05858954,0.13315806,-0.03089267
1691756160662549,-0.01915361,0.06703765,9.81622696,0.06072007,0.09054748,-0.03728426
1691756160664532,-0.20590134,-0.28730419,9.93593693,0.03089267,0.03089267,-0.02663161
1691756160666542,0.15322891,0.06224924,9.84495735,0.00426106,0.00213053,-0.01704423
1691756160668570,0.05746084,-0.09576806,10.01255131,-0.01065264,-0.05645901,-0.01597897
1691756160670536,0.14844051,-0.01915361,9.97903252,-0.01491370,-0.08841695,-0.01704423
1691756160672522,0.19632454,0.18195933,10.07480049,-0.01065264,-0.12676647,-0.01491370
1691756160674561,-0.01915361,-0.11971009,10.17056847,-0.01917476,-0.15659387,-0.01917476
1691756160676530,0.19153613,0.05267244,10.08437729,-0.04154531,-0.16724652,-0.02343582
1691756160678523,-0.05746084,-0.11971009,10.23760605,-0.04474111,-0.18961707,-0.01810949
1691756160680536,0.04788403,-0.04788403,10.19929886,-0.05539375,-0.19600865,-0.02024002
1691756160682555,0.14365210,0.07182605,10.20887566,-0.06498113,-0.19813919,-0.01491370
1691756160684564,0.00957681,-0.05267244,10.31422138,-0.08309063,-0.18002969,-0.01278317
1691756160686561,0.08619126,0.04788403,10.18972206,-0.07350325,-0.18961707,-0.02556635
1691756160688510,-0.22984336,-0.03830723,10.31900978,-0.06711166,-0.16724652,-0.02343582
1691756160690540,-0.26336220,-0.00957681,10.25675964,-0.06817693,-0.15446334,-0.01917476
1691756160692627,-0.23463176,0.08619126,10.40998936,-0.06817693,-0.14700650,-0.04367584
1691756160694571,-0.26815060,-0.08140286,10.40998936,-0.05965481,-0.13848437,-0.04900216
1691756160696560,-0.10055647,0.06224924,10.27591324,-0.05645901,-0.13315806,-0.06178534
1691756160698576,-0.27772740,0.18674773,10.37168217,-0.06498113,-0.11824435,-0.05645901
1691756160700704,-0.22026655,-0.05746084,10.35252857,-0.05965481,-0.12357067,-0.03941479
1691756160702546,-0.16280572,0.09576806,10.36210537,-0.05858954,-0.12144014,-0.04048005
1691756160704548,-0.28251579,0.03830723,10.35252857,-0.05326322,-0.11078750,-0.04261058
1691756160706539,-0.23463176,0.01915361,10.27112484,-0.03941479,-0.09480853,-0.04367584
1691756160708511,-0.35434186,0.06703765,10.29027843,-0.02769688,-0.09054748,-0.04687164
1691756160710583,-0.24420857,0.13886370,10.18972206,-0.03515373,-0.08841695,-0.05645901
1691756160712556,-0.12449849,0.04788403,10.24718285,-0.03302320,-0.08202536,-0.03515373
1691756160714545,-0.13407530,0.11013328,10.16099167,-0.02130529,-0.07243798,-0.04048005
1691756160716677,-0.12449849,0.12928689,10.11310768,-0.02450108,-0.06924219,-0.03515373
1691756160718525,-0.29209262,0.13886370,10.15620327,-0.03941479,-0.06498113,-0.04048005
1691756160720632,-0.18674773,0.08619126,10.06043530,-0.05113269,-0.06178534,-0.03089267
1691756160722648,-0.28251579,0.13886370,10.22324085,-0.04580637,-0.05752428,-0.04367584
1691756160724599,-0.19632454,0.03351882,10.11310768,-0.05006743,-0.06711166,-0.04474111
1691756160726665,-0.19153613,0.02873042,10.20408726,-0.04261058,-0.07350325,-0.05326322
1691756160728518,-0.33997664,0.05746084,10.35252857,-0.04474111,-0.06924219,-0.04048005
1691756160730542,-0.07182605,0.16759412,10.14183807,-0.04367584,-0.06604639,-0.03089267
1691756160732548,-0.13886370,0.03351882,10.25197124,-0.03834952,-0.05326322,-0.01278317
1691756160734624,-0.20590134,0.10534488,10.16099167,-0.00639159,-0.02130529,-0.01384844
1691756160736537,-0.18195933,0.11492168,10.11789608,0.00000000,0.02024002,-0.01917476
1691756160738560,-0.39264908,0.08140286,10.21366405,-0.02024002,0.03302320,-0.01491370
1691756160740626,-0.22984336,0.09097967,10.02212811,-0.03515373,0.01810949,-0.01065264
1691756160742580,-0.30166942,-0.06224924,10.22324085,-0.02450108,0.01917476,-0.00639159
1691756160744554,-0.20590134,-0.05267244,10.17056847,-0.01597897,0.01704423,-0.01065264
1691756160746533,-0.03351882,0.12928689,10.03170490,-0.01491370,-0.00745685,-0.01278317
1691756160748457,-0.21068975,0.09097967,10.16578007,-0.00319579,-0.03408846,-0.01065264
1691756160750627,0.04788403,0.10534488,9.95509052,0.00319579,-0.03195793,-0.01171791
1691756160752784,-0.04788403,0.00000000,10.07480049,-0.01491370,-0.06498113,-0.01278317
1691756160754541,0.10055647,0.01915361,10.01733971,-0.03621899,-0.09587380,-0.00852212
1691756160756653,0.00478840,-0.09097967,10.01733971,-0.02343582,-0.09906960,-0.01704423
1691756160758536,-0.09576806,-0.02394202,10.19451046,-0.03195793,-0.11930962,-0.02130529
1691756160760577,0.12928689,0.01436521,10.09395409,-0.04474111,-0.14168017,-0.02024002
1691756160762555,-0.11492168,-0.02394202,10.19929886,-0.04367584,-0.15339808,-0.01917476
1691756160764537,-0.08619126,0.06703765,10.17535686,-0.03408846,-0.15552860,-0.03515373
1691756160766567,0.02873042,-0.05267244,10.12747288,-0.04367584,-0.15765914,-0.02982740
1691756160768552,-0.09097967,0.00000000,10.27112484,-0.03834952,-0.16405073,-0.01810949
1691756160770566,-0.04309563,-0.06224924,10.21366405,-0.03728426,-0.16298546,-0.03621899
1691756160772534,-0.24899697,-0.00478840,10.31422138,-0.03621899,-0.14487596,-0.04367584
1691756160774558,-0.11971009,0.19153613,10.28549004,-0.02663161,-0.14913702,-0.02343582
1691756160776611,-0.09576806,-0.07661445,10.29985619,-0.01917476,-0.14487596,-0.02024002
1691756160778547,-0.15322891,0.06703765,10.38125896,-0.02450108,-0.12783173,-0.01917476
1691756160780588,-0.11492168,-0.04788403,10.35731697,-0.03408846,-0.13209279,-0.02450108
1691756160782547,-0.33518824,-0.02873042,10.32858658,-0.05752428,-0.13209279,-0.01917476
1691756160784624,-0.22505496,0.11492168,10.31422138,-0.06391586,-0.12570120,-0.01384844
1691756160786565,-0.22505496,-0.23463176,10.38604736,-0.06178534,-0.11824435,-0.00532632
1691756160788555,-0.07661445,0.12928689,10.33816338,-0.06817693,-0.12250541,-0.01597897
1691756160790553,-0.14365210,0.00000000,10.36210537,-0.06285060,-0.10972223,-0.02450108
1691756160792604,-0.25857377,0.04788403,10.31422138,-0.04367584,-0.10759171,-0.01597897
1691756160794563,-0.06703765,0.29209262,10.27112484,-0.03834952,-0.10333065,-0.00426106
1691756160796675,-0.29688102,-0.22026655,10.40998936,-0.04154531,-0.10546118,-0.00639159
1691756160798519,-0.20590134,0.11492168,10.22802925,-0.03941479,-0.10226539,0.00532632
1691756160800600,-0.22026655,-0.10055647,10.25675964,-0.04154531,-0.08948221,-0.00106526
1691756160802575,-0.32561144,-0.01915361,10.19451046,-0.03941479,-0.08735169,0.00745685
1691756160804694,-0.03351882,0.32561144,10.08916569,-0.04261058,-0.08202536,-0.00106526
1691756160806558,-0.23942018,-0.13886370,10.19451046,-0.04048005,-0.06285060,0.00319579
1691756160808518,-0.11492168,0.26815060,10.05564690,-0.03195793,-0.07030746,-0.01384844
1691756160810603,-0.25378537,0.04788403,10.09395409,-0.03089267,-0.07350325,-0.01065264
1691756160812534,-0.45489833,-0.06703765,10.10831928,-0.02769688,-0.05858954,-0.00958738
1691756160814566,-0.16280572,0.25378537,9.91678333,-0.00106526,-0.04793690,0.00000000
1691756160816543,-0.24420857,-0.15322891,10.06522369,0.01065264,-0.04900216,-0.00106526
1691756160818558,-0.10534488,0.17717093,10.04128170,0.00532632,-0.04474111,0.00532632
1691756160820580,-0.14365210,0.10055647,10.01733971,-0.01278317,-0.03515373,0.00213053
1691756160822592,-0.29209262,0.03830723,10.04607010,-0.01384844,-0.03728426,0.01278317
1691756160824620,-0.06703765,0.28730419,9.93114853,-0.02130529,-0.03515373,0.01065264
1691756160826630,-0.26815060,-0.21068975,10.07480049,-0.02663161,-0.03834952,0.00958738
1691756160828546,-0.16280572,-0.03351882,10.01733971,-0.04261058,-0.03621899,0.00319579
1691756160830539,-0.17238252,-0.06703765,9.95987892,-0.05752428,-0.03302320,0.00639159
1691756160832740,-0.31124622,-0.13886370,10.06043530,-0.05539375,-0.03834952,0.00532632
1691756160834617,-0.13407530,0.16280572,10.02691650,-0.05539375,-0.02024002,0.00532632
1691756160836574,-0.23463176,-0.13886370,10.10831928,-0.05219796,-0.00319579,0.00426106
1691756160838550,-0.10055647,0.09097967,9.99339771,-0.02982740,0.02876214,0.01810949
1691756160840569,-0.14844051,0.15801731,9.85932255,0.00000000,0.06072007,0.03728426
1691756160842615,-0.32082301,0.10055647,9.91199493,0.00106526,0.12144014,0.02237055
1691756160844669,-0.22984336,0.32561144,9.80665016,-0.00319579,0.13741912,0.03408846
1691756160846542,-0.38307226,0.05746084,9.79707336,0.00639159,0.13848437,0.02876214
1691756160848512,-0.23463176,0.11971009,9.73482418,0.02130529,0.12250541,0.03408846
1691756160850583,-0.27772740,0.00478840,9.74918938,0.02876214,0.09587380,0.00852212
1691756160852566,-0.35913026,-0.09097967,9.74440098,0.02556635,0.06604639,0.03195793
1691756160854564,-0.08140286,0.10534488,9.70130539,0.00106526,0.03408846,0.00106526
1691756160856537,-0.18195933,-0.00478840,9.73482418,0.00426106,0.00639159,-0.00958738
1691756160858635,0.06224924,0.17238252,9.56723022,0.00852212,0.02130529,-0.01384844
1691756160860564,0.01915361,0.18195933,9.55765343,0.02024002,0.05965481,-0.00213053
1691756160862485,-0.16759412,0.00957681,9.53371143,0.00745685,0.08948221,-0.01704423
1691756160864569,-0.11492168,0.19632454,9.46188545,0.00639159,0.11185277,0.00852212
1691756160866544,-0.46926352,-0.05267244,9.63905621,0.00213053,0.12463594,0.01917476
1691756160868566,-0.30645782,0.08140286,9.54807663,0.02130529,0.11611383,0.01065264
1691756160870547,-0.20590134,0.02394202,9.61990261,0.01704423,0.10546118,0.02343582
1691756160872531,-0.34476504,-0.14844051,9.67736340,0.01171791,0.08202536,0.01065264
1691756160874566,0.06224924,0.11971009,9.57680702,0.00852212,0.06178534,0.02237055
1691756160876560,-0.19153613,0.00000000,9.81622696,0.00852212,0.02237055,0.00532632
1691756160878543,-0.08140286,0.13886370,9.67736340,0.00319579,0.00319579,0.00319579
1691756160880543,-0.04309563,0.19153613,9.72045898,-0.00106526,-0.01065264,-0.00532632
1691756160882564,-0.35434186,-0.12449849,9.73482418,-0.00319579,-0.01810949,0.00213053
1691756160884590,-0.04788403,0.14844051,9.57201862,-0.01065264,0.00532632,0.00745685
1691756160886570,-0.25378537,-0.06224924,9.68694019,-0.01278317,0.04687164,0.01065264
1691756160888528,-0.24420857,-0.00478840,9.60553741,0.01278317,0.08628642,0.01810949
1691756160890569,-0.10055647,0.25378537,9.50498104,0.01384844,0.11291803,0.01597897
1691756160892627,-0.36870706,-0.01436521,9.71567059,0.01917476,0.15446334,0.01171791
1691756160894543,-0.14365210,0.19153613,9.51455784,0.01491370,0.15339808,0.00852212
1691756160896550,-0.28730419,0.11971009,9.61032581,0.02663161,0.14274544,0.00532632
1691756160898553,-0.47884035,-0.14365210,9.66778660,0.02769688,0.13315806,0.00000000
1691756160900583,-0.17717093,0.08140286,9.49540424,0.03089267,0.11398330,0.00426106
1691756160902693,-0.13407530,0.11013328,9.55765343,0.04367584,0.08522116,0.00319579
1691756160904555,-0.14844051,0.06224924,9.42836666,0.04900216,0.08628642,-0.00106526
1691756160906541,0.10534488,0.27772740,9.39963627,0.05113269,0.08628642,0.00106526
1691756160908508,-0.17717093,-0.00478840,9.57201862,0.05113269,0.10333065,0.01171791
1691756160910591,-0.11492168,0.12449849,9.47625065,0.06924219,0.11291803,0.01171791
1691756160912587,-0.15801731,0.14844051,9.40442467,0.05432849,0.12889700,0.00319579
1691756160914540,-0.28730419,-0.14844051,9.52413464,0.03834952,0.11717909,0.01704423
1691756160916603,-0.09576806,0.07182605,9.49540424,0.02343582,0.10972223,0.02130529
1691756160918562,-0.28251579,-0.11013328,9.61990261,0.02130529,0.08948221,0.02343582
1691756160920547,-0.10534488,-0.09576806,9.58638382,0.02130529,0.06924219,0.01917476
1691756160922540,-0.06703765,0.11013328,9.67736340,0.01810949,0.03941479,0.02130529
1691756160924576,-0.18674773,-0.07182605,9.77313137,0.01810949,0.01810949,0.02130529
1691756160926611,-0.09576806,0.02394202,9.79228497,0.01384844,-0.00426106,0.00319579
1691756160928531,-0.15801731,-0.01915361,9.84974575,0.00639159,-0.01491370,0.01491370
1691756160930545,-0.03830723,-0.11492168,9.73482418,0.00000000,-0.01065264,0.01171791
1691756160932611,-0.14365210,0.02873042,9.76834297,-0.00958738,0.03408846,0.01065264
1691756160934705,-0.25378537,-0.07661445,9.73961258,0.00000000,0.08841695,-0.01597897
1691756160936557,-0.15322891,0.07661445,9.69651699,0.00532632,0.13848437,0.00852212
1691756160938547,-0.39743748,0.06224924,9.74440098,0.01704423,0.16511598,-0.00213053
1691756160940583,-0.26815060,-0.01915361,9.61511421,0.02876214,0.18855180,0.01704423
1691756160942631,-0.20590134,0.12928689,9.71567059,0.02343582,0.19174761,0.00426106
1691756160944680,-0.35913026,-0.09097967,9.82101536,0.00852212,0.17257284,0.03195793
1691756160946585,-0.12928689,0.14844051,9.64863300,0.01704423,0.15978967,0.03089267
1691756160948529,-0.35434186,0.17717093,9.85453415,0.03408846,0.13635385,0.01704423
1691756160950564,-0.13407530,0.08619126,9.68694019,0.02982740,0.11930962,0.01704423
1691756160952608,0.00957681,0.17238252,9.74440098,0.03941479,0.09267800,0.00639159
1691756160954556,-0.29688102,-0.18674773,9.86411095,0.05326322,0.09374327,0.00426106
1691756160956570,-0.00478840,0.07661445,9.73482418,0.02450108,0.09054748,-0.01384844
1691756160958555,-0.21068975,0.06703765,9.95509052,0.01810949,0.07030746,0.01491370
1691756160960626,-0.09576806,-0.08140286,9.86889935,0.03728426,0.05965481,0.00639159
1691756160962555,0.11492168,0.20111294,9.89762974,0.04367584,0.04687164,0.00852212
1691756160964554,-0.17238252,-0.00957681,10.03170490,0.01384844,0.02663161,-0.00106526
1691756160966747,0.12928689,0.07182605,9.92157173,0.01171791,-0.00213053,0.01384844
1691756160968626,-0.14365210,-0.00957681,10.15620327,0.00106526,-0.02130529,0.01171791
1691756160970545,0.17238252,0.12928689,9.97424412,-0.01704423,-0.03621899,-0.00426106
1691756160972547,0.02394202,0.19632454,10.07001209,-0.01917476,-0.04367584,0.00639159
1691756160974599,-0.16280572,0.06224924,10.20408726,-0.01810949,-0.05219796,0.01065264
1691756160976579,0.16759412,0.05267244,10.02212811,-0.02024002,-0.06285060,-0.00532632
1691756160978551,-0.04788403,0.02394202,10.17056847,-0.01491370,-0.06604639,0.00958738
1691756160980540,-0.11013328,0.08619126,10.13226128,-0.00532632,-0.06711166,0.01917476
1691756160982543,-0.09097967,0.14844051,10.12268448,-0.00319579,-0.05326322,-0.00213053
1691756160984721,-0.28251579,0.09097967,10.27112484,-0.00319579,-0.05113269,-0.01171791
1691756160986560,-0.06703765,0.04309563,10.15141487,-0.00852212,-0.04900216,-0.00745685
1691756160988512,-0.18674773,-0.00957681,10.29027843,-0.00532632,-0.02769688,0.00319579
1691756160990728,-0.16759412,0.12928689,10.20887566,0.02130529,-0.02024002,0.00745685
1691756160992680,-0.26336220,-0.00478840,10.32379818,0.04154531,-0.00426106,0.01810949
1691756160994642,-0.27293900,0.22984336,10.30464458,0.03834952,0.00213053,0.02024002
1691756160996551,-0.14844051,0.08619126,10.19929886,0.01917476,0.02024002,0.01278317
1691756160998520,-0.32082301,-0.05267244,10.25197124,0.01810949,0.02876214,0.00319579
1691756161000567,-0.33518824,-0.01915361,10.20887566,0.00745685,0.04261058,-0.00213053
1691756161002628,-0.23463176,0.04309563,10.24718285,0.00319579,0.06817693,-0.01065264
1691756161004622,-0.22026655,0.09097967,10.22324085,0.00639159,0.10333065,0.00319579
1691756161006567,-0.13407530,0.09576806,10.07001209,0.01491370,0.15126754,0.01917476
1691756161008541,-0.27293900,0.09097967,10.11789608,0.02024002,0.20133498,0.01491370
1691756161010591,-0.32561144,0.07182605,9.98382092,0.04580637,0.24394555,0.00319579
1691756161012622,-0.31603462,0.04788403,10.00297451,0.05858954,0.25140241,0.00532632
1691756161014566,-0.27293900,0.05267244,9.86889935,0.03834952,0.22264026,-0.00319579
1691756161016555,-0.19632454,-0.00957681,9.99339771,0.03515373,0.19920444,-0.00319579
1691756161018598,-0.36391866,-0.03830723,10.10353088,0.04687164,0.18002969,-0.00319579
1691756161020580,0.05267244,0.08140286,9.90241814,0.02450108,0.14381070,-0.00532632
1691756161022541,-0.02394202,0.08619126,10.03649330,0.02130529,0.10652644,-0.00639159
1691756161024565,-0.02394202,-0.00478840,10.01733971,0.01704423,0.06391586,0.01491370
1691756161026651,0.17238252,0.06224924,10.00776291,0.00958738,0.04261058,-0.00639159
1691756161028562,-0.12928689,-0.02873042,10.22324085,-0.00532632,0.02343582,0.00213053
1691756161030545,0.00957681,0.02873042,10.09395409,-0.00106526,-0.00319579,0.00745685
1691756161032558,-0.52193600,-0.12449849,10.19929886,-0.01597897,0.01171791,0.01065264
1691756161034635,-0.26336220,0.04309563,9.96945572,-0.01917476,0.01704423,0.00426106
1691756161036752,-0.50278234,0.02873042,10.14662647,-0.01704423,0.02556635,0.01384844
1691756161038526,-0.39743748,0.05267244,10.03170490,-0.00958738,0.03728426,-0.00958738
1691756161040587,-0.35913026,0.04309563,10.14183807,0.00426106,0.02982740,0.00106526
1691756161042638,-0.37828386,0.00478840,10.18972206,0.01917476,0.04048005,-0.00319579
1691756161044591,-0.20590134,-0.00478840,10.10831928,0.03195793,0.03621899,0.00958738
1691756161046560,-0.30166942,0.09576806,10.31900978,0.03941479,0.02130529,0.01171791
1691756161048519,-0.06703765,0.09576806,10.25675964,0.03621899,0.00426106,0.01384844
1691756161050566,-0.14844051,0.01436521,10.32379818,0.02876214,0.00319579,0.00319579
1691756161052576,-0.19153613,0.05746084,10.36210537,0.02556635,-0.01917476,0.00426106
1691756161054564,-0.11492168,-0.01436521,10.25197124,0.02024002,-0.02024002,-0.01278317
1691756161056617,-0.20111294,0.10055647,10.32858658,0.01278317,0.02024002,-0.01597897
1691756161058533,-0.10534488,0.06224924,10.10831928,0.01597897,0.05752428,-0.01278317
1691756161060605,-0.29688102,0.03351882,10.12268448,0.01917476,0.10120012,0.00319579
1691756161062588,-0.37349546,0.06703765,10.10353088,0.02982740,0.15552860,-0.00852212
1691756161064563,-0.37828386,-0.09576806,10.03170490,0.03728426,0.17044231,0.01065264
1691756161066561,-0.48362875,0.18674773,10.01255131,0.03408846,0.18002969,-0.00639159
1691756161068564,-0.25857377,0.03351882,9.93114853,0.03941479,0.15126754,0.00426106
1691756161070557,-0.22505496,0.08140286,9.95987892,0.04367584,0.14168017,-0.01917476
1691756161072609,-0.01436521,0.23463176,9.87368774,0.03941479,0.14168017,0.01278317
1691756161074555,-0.12449849,0.03351882,9.86889935,0.03515373,0.15020229,0.00745685
1691756161076576,-0.19153613,-0.00478840,9.91678333,0.03728426,0.13954964,0.01917476
1691756161078536,-0.11013328,0.01915361,9.84495735,0.03195793,0.12144014,-0.00426106
1691756161080546,-0.03351882,0.02394202,9.88805294,0.02024002,0.11504856,0.00745685
1691756161082544,-0.05267244,0.18674773,9.84495735,0.01384844,0.07882957,-0.00852212
1691756161084590,0.08140286,0.11013328,9.88326454,0.00639159,0.06072007,-0.01065264
1691756161086589,-0.01436521,0.10534488,9.97903252,0.01065264,0.02663161,-0.01917476
1691756161088523,0.21068975,0.17238252,9.88326454,0.01810949,0.00000000,-0.02663161
1691756161090556,0.01436521,-0.07661445,9.95509052,0.01597897,-0.03408846,-0.01704423
1691756161092646,-0.03351882,0.22026655,9.93114853,0.01491370,-0.06604639,-0.02237055
1691756161094575,-0.02394202,-0.08140286,9.97424412,0.02343582,-0.06604639,-0.01597897
1691756161096556,-0.02873042,0.05746084,10.01255131,0.02876214,-0.07456851,-0.01171791
1691756161098540,0.03830723,0.31603462,9.92157173,0.01597897,-0.09161274,-0.01384844
1691756161100578,-0.10534488,-0.01915361,9.96945572,0.01065264,-0.11078750,-0.01171791
1691756161102554,-0.18195933,-0.01915361,10.01733971,0.02024002,-0.08841695,-0.01065264
1691756161104557,0.00957681,0.13407530,9.95509052,0.02237055,-0.09693906,-0.00852212
1691756161106570,-0.21068975,-0.09097967,10.06043530,-0.00106526,-0.10333065,-0.00852212
1691756161108698,-0.06703765,0.22505496,9.92636013,0.00426106,-0.10120012,-0.01065264
1691756161110618,-0.32561144,-0.15322891,10.08437729,0.01171791,-0.08841695,-0.01065264
1691756161112558,-0.11971009,0.13886370,10.06522369,0.00319579,-0.09587380,-0.00213053
1691756161114540,-0.07182605,0.21068975,9.95030212,-0.01171791,-0.11078750,0.00000000
1691756161116657,-0.32082301,-0.16280572,10.08916569,-0.01917476,-0.10865697,-0.01065264
1691756161118572,-0.00957681,0.28251579,10.04128170,-0.02556635,-0.10865697,-0.00745685
1691756161120556,-0.21547815,-0.01436521,10.14183807,-0.02769688,-0.11504856,-0.00426106
1691756161122580,-0.17717093,0.05746084,10.15620327,-0.01917476,-0.12676647,-0.00213053
1691756161124595,-0.09097967,0.22984336,10.06522369,-0.01597897,-0.12463594,-0.00426106
1691756161126741,-0.11013328,0.09097967,10.06043530,-0.00958738,-0.11291803,-0.00106526
1691756161128534,0.10055647,0.25857377,10.01255131,-0.00426106,-0.11717909,-0.00426106
1691756161130571,-0.14844051,0.01436521,10.07958889,-0.00958738,-0.12463594,-0.01171791
1691756161132553,-0.18195933,0.05746084,9.99339771,-0.02237055,-0.12037488,-0.01065264
1691756161134651,-0.22505496,0.07661445,10.00297451,-0.01810949,-0.12570120,-0.01704423
1691756161136590,-0.22505496,-0.03351882,9.95987892,-0.00639159,-0.14061491,-0.01597897
1691756161138583,0.08140286,0.18674773,9.96945572,-0.00852212,-0.14274544,-0.01704423
1691756161140576,-0.12449849,-0.01436521,10.08437729,-0.00958738,-0.13422331,-0.01704423
1691756161142648,-0.01436521,0.15801731,9.95509052,0.00213053,-0.13954964,-0.01491370
1691756161144568,-0.15322891,0.17717093,10.07480049,0.00319579,-0.13315806,-0.00106526
1691756161146583,-0.29209262,0.01436521,10.06043530,-0.00852212,-0.12250541,0.00213053
1691756161148511,-0.02873042,0.12928689,9.99818611,-0.01278317,-0.10546118,-0.00852212
1691756161150613,-0.30166942,0.04309563,10.06522369,-0.00532632,-0.08096009,-0.02130529
1691756161152580,-0.15801731,0.11492168,9.98860931,-0.00106526,-0.07989483,-0.02130529
1691756161154653,-0.21068975,0.17717093,10.11789608,-0.00639159,-0.07456851,-0.01384844
1691756161156632,-0.22505496,0.06224924,10.00297451,-0.00426106,-0.06285060,-0.00319579
1691756161158572,0.02873042,0.26336220,10.00297451,-0.00745685,-0.05858954,-0.00319579
1691756161160612,-0.25857377,-0.10055647,10.19929886,-0.00958738,-0.05965481,-0.00852212
1691756161162621,-0.16759412,0.12449849,10.00776291,-0.00639159,-0.06178534,-0.01171791
1691756161164548,-0.21068975,0.18674773,10.07480049,0.01065264,-0.06391586,-0.01278317
1691756161166686,-0.36391866,-0.07661445,10.08916569,0.01917476,-0.05326322,-0.00852212
1691756161168578,0.04309563,0.22505496,9.95987892,0.01704423,-0.05006743,0.00213053
1691756161170630,-0.24420857,-0.13886370,10.16578007,0.01491370,-0.06391586,-0.01384844
1691756161172556,-0.13886370,0.03830723,9.98860931,0.00426106,-0.07030746,-0.02024002
1691756161174567,-0.13407530,0.20111294,10.01733971,0.00426106,-0.07243798,-0.02237055
1691756161176620,-0.26815060,-0.05267244,10.02691650,0.00745685,-0.07989483,-0.01065264
1691756161178556,0.10055647,0.24899697,9.82101536,0.00852212,-0.08628642,-0.01384844
1691756161180565,-0.19153613,-0.09097967,9.97424412,0.00532632,-0.08948221,-0.00532632
1691756161182577,-0.13886370,-0.02394202,9.84495735,0.01278317,-0.08522116,-0.00639159
1691756161184624,-0.16759412,0.11013328,9.85453415,0.00639159,-0.07989483,-0.00532632
1691756161186615,-0.31603462,-0.11013328,9.97424412,-0.00639159,-0.09054748,0.00426106
1691756161188531,0.00000000,0.15322891,9.83059216,-0.00852212,-0.10333065,0.00852212
1691756161190570,-0.21547815,-0.08140286,9.96945572,0.00106526,-0.10120012,0.01704423
1691756161192724,-0.04788403,0.11013328,9.87368774,-0.00532632,-0.11611383,0.00852212
1691756161194595,-0.08619126,0.16280572,9.91678333,-0.01278317,-0.12357067,0.00852212
1691756161196584,-0.22505496,-0.06703765,10.02691650,-0.02024002,-0.12357067,0.00639159
1691756161198533,-0.08140286,0.13407530,9.94072533,-0.01917476,-0.12144014,-0.00958738
1691756161200685,-0.26815060,-0.02873042,10.09874249,-0.01278317,-0.12570120,-0.01917476
1691756161202562,-0.07182605,0.22505496,10.02691650,-0.01491370,-0.13209279,-0.01278317
1691756161204543,-0.11492168,0.08140286,10.10831928,-0.02130529,-0.13422331,-0.01597897
1691756161206563,-0.11971009,0.02873042,10.13226128,-0.01171791,-0.13741912,-0.01917476
1691756161208544,-0.04309563,0.22984336,10.12268448,0.00213053,-0.13528858,-0.01384844
1691756161210577,-0.26815060,0.12928689,10.22324085,0.00000000,-0.14168017,0.00213053
1691756161212516,-0.14365210,0.01915361,10.13226128,-0.00426106,-0.14700650,0.00000000
1691756161214551,-0.26815060,0.10055647,10.21845245,-0.01065264,-0.15765914,0.00639159
1691756161216575,-0.21068975,-0.04309563,10.16578007,-0.02130529,-0.14594123,0.00426106
1691756161218558,-0.13407530,0.09097967,10.08437729,-0.01810949,-0.10972223,0.02450108
1691756161220583,-0.29209262,0.09576806,10.05085850,-0.00852212,-0.05965481,0.02663161
1691756161222549,-0.15322891,0.14844051,9.75876617,0.00319579,-0.01810949,0.02343582
1691756161224568,-0.35434186,0.15801731,9.91199493,0.00426106,0.02024002,0.00000000
1691756161226578,-0.41659111,0.05267244,9.84495735,0.01384844,0.04261058,-0.00745685
1691756161228641,-0.21547815,0.11492168,9.68694019,0.00426106,0.05539375,-0.01491370
1691756161230553,-0.46447513,0.01436521,9.82101536,0.00000000,0.03941479,-0.00852212
1691756161232691,-0.20590134,0.00000000,9.53849983,0.00319579,0.02876214,0.00319579
1691756161234586,-0.25378537,0.05267244,9.61511421,0.00852212,0.00426106,0.01597897
1691756161236547,-0.33039984,-0.00957681,9.62947941,0.00745685,-0.01171791,0.01597897
1691756161238524,0.01436521,0.16280572,9.45230865,0.00000000,-0.03195793,0.02130529
1691756161240552,-0.24420857,0.05267244,9.67736340,0.00106526,-0.04048005,0.00426106
1691756161242551,-0.05267244,0.07182605,9.45709705,-0.01278317,-0.03834952,0.00106526
1691756161244543,-0.05267244,0.18674773,9.51455784,-0.02024002,-0.04048005,-0.01384844
1691756161246572,-0.11492168,-0.03351882,9.53849983,-0.01597897,-0.05006743,-0.01065264
1691756161248544,0.06703765,0.14365210,9.41878986,-0.00639159,-0.05326322,-0.01491370
1691756161250600,-0.21547815,0.02394202,9.65342140,-0.01278317,-0.04367584,-0.00852212
1691756161252579,0.07182605,0.13886370,9.57680702,-0.01810949,-0.05432849,-0.00958738
1691756161254548,-0.19153613,0.11971009,9.64384460,-0.01597897,-0.05113269,0.00852212
1691756161256550,-0.37828386,0.04309563,9.78270817,-0.01810949,-0.05965481,0.00639159
1691756161258538,-0.05267244,0.10055647,9.62947941,-0.02343582,-0.06711166,0.00958738
1691756161260650,-0.15322891,0.06224924,9.83538055,-0.02450108,-0.06498113,0.01171791
1691756161262591,-0.04788403,0.06224924,9.80186176,-0.02663161,-0.05752428,0.00852212
1691756161264571,-0.07661445,0.19153613,9.71567059,-0.00958738,-0.02982740,0.00852212
1691756161266584,-0.32561144,0.21547815,9.82101536,-0.00213053,0.00639159,0.01278317
1691756161268617,-0.26336220,0.11013328,9.69651699,0.00319579,0.05219796,0.01704423
1691756161270594,-0.45489833,0.06703765,9.82580376,-0.00639159,0.09480853,0.01597897
1691756161272668,-0.35434186,0.00957681,9.77791977,-0.01065264,0.09800433,0.02450108
1691756161274581,-0.31603462,0.00478840,9.73482418,-0.02663161,0.09587380,0.03515373
1691756161276487,-0.45968673,0.03830723,9.82580376,-0.02982740,0.07137272,0.01491370
1691756161278542,-0.22984336,0.01915361,9.70130539,-0.02237055,0.06285060,-0.00106526
1691756161280605,-0.25378537,0.05746084,9.79228497,-0.00745685,0.03195793,-0.00106526
1691756161282687,-0.06703765,0.05746084,9.64384460,-0.01171791,0.00852212,0.01384844
1691756161284586,-0.01915361,-0.06224924,9.64863300,-0.01810949,-0.01491370,0.00532632
1691756161286573,-0.22505496,-0.12928689,9.73961258,-0.01384844,-0.04048005,0.00852212
1691756161288523,-0.10534488,-0.03351882,9.61511421,-0.01597897,-0.03834952,0.00745685
1691756161290548,-0.23942018,-0.01915361,9.68215179,-0.02876214,-0.02556635,0.00532632
1691756161292604,-0.13886370,0.13886370,9.54807663,-0.04048005,-0.00639159,-0.01065264
1691756161294553,-0.05746084,0.03830723,9.43315506,-0.01384844,0.03941479,0.00319579
1691756161296562,-0.29209262,0.01436521,9.62469101,-0.01278317,0.10652644,0.00319579
1691756161298536,-0.16280572,0.13407530,9.40442467,-0.00426106,0.13635385,0.00852212
1691756161300559,-0.33997664,0.07182605,9.48582745,0.02663161,0.18322548,0.01384844
1691756161302582,-0.44053310,0.15801731,9.43794346,0.05539375,0.21944447,0.01384844
1691756161304549,-0.25378537,0.13407530,9.25598335,0.06391586,0.23116238,0.00852212
1691756161306564,-0.45489833,0.09576806,9.49540424,0.05645901,0.23435818,-0.00319579
1691756161308554,-0.32082301,0.15322891,9.32781029,0.06498113,0.20133498,0.01171791
1691756161310601,-0.24899697,0.04788403,9.33259869,0.05645901,0.16511598,0.01278317
1691756161312573,-0.37349546,-0.09097967,9.51455784,0.05965481,0.13741912,0.00852212
1691756161314573,-0.08140286,0.02873042,9.31823349,0.05006743,0.12250541,0.00532632
1691756161316571,-0.17238252,-0.02873042,9.49061584,0.04154531,0.07350325,-0.00745685
1691756161318562,-0.01915361,0.01436521,9.45230865,0.03834952,0.05326322,-0.00639159
1691756161320563,0.15322891,0.08619126,9.37090588,0.03834952,0.03728426,-0.01597897
1691756161322616,-0.05746084,-0.08140286,9.54807663,0.03515373,0.02876214,-0.00958738
1691756161324587,0.13407530,0.11013328,9.34696388,0.02450108,0.03941479,-0.00426106
1691756161326688,-0.12928689,0.07182605,9.39484787,0.02556635,0.07137272,0.02024002
1691756161328555,-0.29688102,0.06224924,9.43794346,0.01384844,0.11185277,0.01065264
1691756161330558,-0.16759412,0.10055647,9.29907894,0.01917476,0.13741912,0.02237055
1691756161332588,-0.35434186,-0.13407530,9.52413464,0.03302320,0.16192019,0.01491370
1691756161334615,-0.20111294,-0.06224924,9.43794346,0.02769688,0.15978967,0.01704423
1691756161336565,-0.27293900,-0.00478840,9.49061584,0.01065264,0.15233281,0.00426106
1691756161338594,-0.29688102,-0.06703765,9.62469101,-0.00745685,0.13315806,0.01384844
1691756161340598,-0.10055647,0.18674773,9.55765343,-0.00319579,0.10652644,-0.00852212
1691756161342579,-0.16759412,0.09097967,9.73003578,-0.00106526,0.07882957,-0.00852212
1691756161344567,-0.06703765,0.11971009,9.72524738,0.00852212,0.06072007,-0.02450108
1691756161346566,-0.14844051,0.05267244,9.64863300,0.00426106,0.04367584,-0.02024002
1691756161348562,-0.16280572,-0.13407530,9.73961258,-0.00213053,0.02343582,-0.01171791
1691756161350565,-0.06224924,0.02394202,9.72524738,-0.00745685,0.02876214,-0.00106526
1691756161352571,-0.18195933,0.00957681,9.76834297,0.00532632,0.06178534,0.00958738
1691756161354554,-0.04309563,0.14844051,9.71088219,0.01597897,0.09374327,0.00319579
1691756161356596,-0.17717093,0.10534488,9.70609379,0.02343582,0.11504856,0.01491370
1691756161358541,-0.30166942,0.09576806,9.82580376,0.02450108,0.14274544,0.00000000
1691756161360604,-0.21068975,0.12928689,9.80186176,0.02343582,0.15978967,0.01810949
1691756161362607,-0.34476504,0.02873042,9.87847614,0.00426106,0.13954964,0.00958738
1691756161364554,-0.18195933,0.08140286,9.88805294,-0.00213053,0.11824435,0.01597897
1691756161366609,-0.27293900,-0.04788403,9.95030212,0.00106526,0.12037488,-0.01065264
1691756161368555,-0.27293900,0.00000000,9.95987892,-0.00852212,0.10439591,0.00213053
1691756161370696,-0.05746084,0.09576806,9.94072533,-0.02343582,0.09480853,-0.00852212
1691756161372556,-0.24420857,-0.13407530,10.06043530,-0.01704423,0.10013486,0.00958738
1691756161374586,-0.03830723,0.11492168,9.99818611,0.00745685,0.12676647,-0.00426106
1691756161376579,-0.11971009,0.08140286,10.04128170,0.01065264,0.13528858,0.01704423
1691756161378588,-0.23942018,0.08619126,10.02691650,0.01278317,0.12250541,0.01384844
1691756161380557,-0.06703765,0.16280572,9.98382092,0.00106526,0.10439591,0.01597897
1691756161382591,-0.28251579,-0.12928689,10.15620327,-0.00958738,0.08309063,0.00532632
1691756161384615,-0.05267244,0.03830723,10.07001209,-0.01597897,0.06604639,0.02130529
1691756161386570,-0.11013328,-0.04788403,10.18972206,-0.03302320,0.03515373,0.00426106
1691756161388537,-0.23463176,-0.06224924,10.15141487,-0.04474111,0.01917476,0.00852212
1691756161390576,0.09097967,0.24420857,10.07480049,-0.04154531,0.01917476,0.00213053
1691756161392564,-0.12449849,-0.07661445,10.16099167,-0.02663161,0.03408846,0.02237055
1691756161394621,-0.01436521,0.15801731,10.01733971,-0.01810949,0.05645901,0.00532632
1691756161396587,-0.16280572,0.03830723,10.09874249,-0.01704423,0.07669904,0.00852212
1691756161398547,-0.39743748,-0.07661445,10.15141487,-0.02450108,0.08735169,0.00319579
1691756161400630,-0.06224924,0.18674773,10.02212811,-0.02556635,0.08096009,0.00639159
1691756161402582,-0.24899697,-0.12928689,10.21366405,-0.01065264,0.06604639,-0.00213053
1691756161404556,-0.01436521,0.12928689,10.05085850,-0.00532632,0.05432849,-0.00639159
1691756161406551,0.05746084,0.10534488,10.05564690,-0.00426106,0.01810949,-0.01065264
1691756161408547,-0.23463176,-0.04788403,10.08916569,-0.00745685,-0.02237055,0.00426106
1691756161410592,0.10534488,0.19153613,10.06522369,-0.00958738,-0.05219796,0.00213053
1691756161412563,-0.16280572,-0.18195933,10.29027843,-0.02450108,-0.08202536,-0.00958738
1691756161414587,0.00957681,0.11013328,10.15141487,-0.03302320,-0.10333065,-0.02130529
1691756161416592,0.09576806,0.10055647,10.17535686,-0.03515373,-0.12889700,-0.02556635
1691756161418569,-0.06224924,-0.09097967,10.28549004,-0.03515373,-0.13102752,-0.01597897
1691756161420562,0.10534488,0.18674773,10.19451046,-0.05752428,-0.12250541,-0.01491370
1691756161422589,-0.26815060,-0.16759412,10.30943298,-0.06285060,-0.09161274,-0.00745685
1691756161424622,-0.23942018,0.15322891,10.12268448,-0.04474111,-0.06711166,-0.01171791
1691756161426598,-0.24420857,0.13886370,10.07001209,-0.04261058,0.00958738,0.01810949
1691756161428599,-0.43095630,-0.00478840,10.20408726,-0.02343582,0.06817693,0.02130529
1691756161430553,-0.21547815,0.28251579,9.97903252,-0.01065264,0.09906960,0.01704423
1691756161432535,-0.46447513,-0.00957681,10.08916569,-0.00426106,0.12996227,0.00000000
1691756161434610,-0.38307226,0.13407530,10.04607010,-0.00319579,0.12144014,-0.00639159
1691756161436581,-0.29688102,0.17717093,9.99818611,0.00639159,0.10439591,-0.00426106
1691756161438531,-0.44053310,-0.00957681,10.03170490,0.00745685,0.11078750,-0.00532632
1691756161440571,-0.19632454,0.30166942,9.91678333,0.00639159,0.11504856,-0.00958738
1691756161442619,-0.27293900,0.00000000,10.02212811,0.01810949,0.09587380,-0.00319579
1691756161444551,-0.13407530,0.14844051,9.98382092,0.01704423,0.11291803,-0.01278317
1691756161446558,-0.13407530,0.21547815,9.97903252,0.02556635,0.13209279,0.00852212
1691756161448552,-0.18195933,-0.01436521,10.04607010,0.03195793,0.13102752,-0.00426106
1691756161450590,-0.03351882,0.28730419,9.98860931,0.02663161,0.13315806,-0.01065264
1691756161452585,-0.24899697,-0.06703765,10.07480049,0.00319579,0.10333065,-0.01597897
1691756161454554,-0.04309563,-0.00478840,9.95509052,-0.01065264,0.06391586,0.00426106
1691756161456555,-0.10534488,0.10534488,10.04607010,-0.02024002,0.03728426,-0.00319579
1691756161458577,-0.06703765,-0.10534488,10.01255131,-0.01171791,-0.01597897,0.00106526
1691756161460681,0.22026655,0.12928689,10.03170490,-0.01810949,-0.05965481,-0.01278317
1691756161462550,-0.03351882,-0.12928689,10.17535686,-0.03408846,-0.08735169,-0.00745685
1691756161464601,0.12928689,0.03830723,10.06043530,-0.03302320,-0.12570120,-0.02130529
1691756161466600,-0.02394202,0.04788403,10.08437729,-0.03621899,-0.13741912,-0.00426106
1691756161468593,-0.05267244,-0.17717093,10.07958889,-0.04687164,-0.13102752,-0.00958738
1691756161470566,0.00957681,0.08619126,10.05564690,-0.05539375,-0.14913702,-0.00213053
1691756161472646,-0.17238252,-0.06224924,10.08437729,-0.05858954,-0.13102752,-0.00213053
1691756161474578,0.04788403,0.11971009,9.94072533,-0.05113269,-0.12889700,-0.00106526
1691756161476572,-0.08619126,0.15801731,10.09874249,-0.05113269,-0.11930962,0.00852212
1691756161478544,-0.09576806,0.04309563,10.07958889,-0.05752428,-0.11291803,0.00852212
1691756161480559,-0.09576806,0.09576806,9.99339771,-0.04261058,-0.10759171,-0.00213053
1691756161482576,-0.38307226,0.00478840,10.06043530,-0.03834952,-0.10120012,-0.00532632
1691756161484574,-0.12928689,0.11971009,9.92636013,-0.03941479,-0.10546118,-0.01384844
1691756161486586,-0.21068975,0.04309563,10.16578007,-0.04048005,-0.10759171,-0.00426106
1691756161488526,-0.16280572,0.01436521,10.12268448,-0.02450108,-0.11291803,-0.00852212
1691756161490553,-0.03830723,0.17717093,10.04607010,-0.03195793,-0.11398330,-0.00319579
1691756161492617,-0.33039984,0.11013328,10.24239445,-0.02343582,-0.12144014,-0.00106526
1691756161494742,-0.08619126,0.12449849,10.04128170,-0.01171791,-0.11930962,0.01384844
1691756161496565,-0.14365210,0.03830723,10.17056847,-0.02237055,-0.10865697,-0.00532632
1691756161498533,-0.17238252,0.00957681,10.16578007,-0.03515373,-0.10972223,-0.01171791
1691756161500568,-0.06703765,0.08619126,10.03170490,-0.02982740,-0.10972223,-0.00852212
1691756161502587,-0.38307226,0.02873042,10.24239445,-0.03089267,-0.10226539,-0.01171791
1691756161504570,-0.11971009,0.06224924,10.07001209,-0.04474111,-0.09693906,-0.01384844
1691756161506555,-0.07661445,0.03830723,10.12747288,-0.05006743,-0.10333065,0.00745685
1691756161508614,-0.13407530,0.00957681,10.16099167,-0.04048005,-0.10652644,0.01917476
1691756161510674,-0.02394202,0.06224924,10.06043530,-0.03941479,-0.11611383,0.00745685
1691756161512549,-0.32082301,0.09576806,10.23760605,-0.04793690,-0.11185277,0.01171791
1691756161514557,-0.20111294,-0.02394202,10.05564690,-0.06498113,-0.10759171,0.02663161
1691756161516564,-0.20111294,-0.06224924,10.11789608,-0.05326322,-0.10120012,0.01917476
1691756161518551,-0.18674773,0.03830723,10.16099167,-0.02876214,-0.07030746,0.01917476
1691756161520627,-0.04788403,0.12449849,10.06043530,-0.00532632,-0.02876214,0.02982740
1691756161522568,-0.31124622,0.26336220,10.12268448,0.00745685,0.00639159,0.04154531
1691756161524580,-0.27293900,0.15801731,9.92636013,0.01065264,0.01704423,0.03515373
1691756161526759,-0.33997664,0.11971009,10.03649330,0.01171791,0.02876214,0.03302320
1691756161528545,-0.34476504,0.06703765,10.06522369,0.00958738,0.01810949,0.03941479
1691756161530558,-0.23942018,0.10534488,9.95509052,0.00426106,0.00852212,0.03089267
1691756161532565,-0.36391866,0.07182605,9.98860931,0.00000000,-0.02663161,0.03089267
1691756161534564,-0.16280572,0.07661445,9.89284134,-0.00958738,-0.03621899,0.00852212
1691756161536568,-0.10534488,0.07182605,9.97903252,-0.00532632,-0.05113269,0.00958738
1691756161538541,-0.09576806,0.12928689,9.95030212,-0.00745685,-0.03408846,0.00106526
1691756161540559,-0.16759412,0.05746084,9.80665016,-0.01065264,-0.01917476,0.00426106
1691756161542579,-0.27772740,0.03351882,9.94551373,-0.02130529,0.03195793,-0.01704423
1691756161544591,-0.22026655,0.04788403,9.71567059,-0.01704423,0.07030746,-0.00213053
1691756161546560,-0.33039984,0.12449849,9.79228497,-0.00106526,0.11717909,-0.00852212
1691756161548531,-0.42137951,0.16280572,9.74918938,0.00639159,0.15126754,0.00000000
1691756161550589,-0.20590134,0.12928689,9.65820980,0.02343582,0.15552860,0.00106526
1691756161552590,-0.49799395,0.08619126,9.85932255,0.03941479,0.14594123,-0.00532632
1691756161554609,-0.18674773,0.12449849,9.63426781,0.03941479,0.11611383,-0.00319579
1691756161556555,-0.14844051,0.13407530,9.74918938,0.03089267,0.06178534,0.01810949
1691756161558573,-0.35434186,-0.00957681,9.87368774,0.03621899,0.02769688,0.02982740
1691756161560581,-0.11013328,0.01915361,9.73003578,0.02024002,0.00000000,0.02663161
1691756161562572,-0.09576806,-0.01436521,9.83538055,-0.00532632,-0.05113269,0.01597897
1691756161564556,-0.13886370,0.04788403,9.83538055,-0.01065264,-0.04900216,0.01384844
1691756161566583,0.22505496,0.13886370,9.64863300,-0.00958738,-0.03195793,0.01278317
1691756161568543,-0.05746084,0.00478840,9.82580376,-0.02450108,-0.00852212,0.01810949
1691756161570560,0.02394202,0.08619126,9.65342140,-0.02769688,-0.00745685,0.01597897
1691756161572561,-0.14844051,0.02394202,9.72045898,-0.00958738,0.02024002,0.01384844
1691756161574559,-0.37349546,-0.01436521,9.82101536,-0.00319579,0.00000000,0.00319579
1691756161576611,-0.02873042,0.18195933,9.67736340,0.00106526,-0.02769688,0.01171791
1691756161578573,-0.22026655,-0.04788403,9.92157173,-0.00958738,-0.04154531,0.02130529
1691756161580562,-0.01915361,0.03830723,9.80186176,-0.01810949,-0.06498113,0.01917476
1691756161582597,0.02394202,0.07661445,9.81622696,-0.02876214,-0.09054748,0.00426106
1691756161584609,-0.13407530,0.02394202,9.96945572,-0.02663161,-0.09054748,0.01597897
1691756161586562,0.07182605,0.12928689,9.81622696,-0.01917476,-0.09906960,0.01384844
1691756161588530,-0.18195933,-0.05267244,9.99818611,-0.02450108,-0.11930962,0.00532632
1691756161590580,-0.08619126,0.06703765,9.93593693,-0.03089267,-0.12357067,0.00319579
1691756161592601,-0.13407530,0.05746084,9.96945572,-0.03302320,-0.12144014,0.00000000
1691756161594596,-0.10534488,0.09097967,10.06043530,-0.01810949,-0.12996227,-0.00745685
1691756161596589,0.08140286,0.17717093,10.00776291,-0.00639159,-0.13528858,0.00532632
1691756161598539,-0.23463176,0.01915361,10.16578007,-0.00319579,-0.15339808,0.01597897
1691756161600631,-0.17238252,0.13886370,10.17535686,0.00000000,-0.14594123,0.00213053
1691756161602609,-0.20111294,0.02394202,10.11310768,-0.01491370,-0.12889700,-0.00106526
1691756161604558,-0.22984336,0.00000000,10.19451046,-0.01810949,-0.12463594,0.00745685
1691756161606582,-0.22026655,0.10534488,10.05564690,-0.00639159,-0.07243798,0.01278317
1691756161608624,-0.26336220,-0.02873042,10.18493366,0.00106526,-0.04900216,0.00745685
1691756161610691,-0.17717093,0.22984336,10.06043530,0.00532632,-0.02663161,0.00426106
1691756161612561,-0.25857377,0.14844051,9.92636013,-0.00319579,-0.01597897,-0.00532632
1691756161614522,-0.34955344,0.14844051,10.00776291,0.00532632,-0.01917476,0.00745685
1691756161616595,-0.26815060,0.09097967,9.88805294,0.00745685,-0.02024002,-0.00319579
1691756161618584,-0.38307226,-0.02394202,9.92157173,0.00106526,-0.02982740,0.00639159
1691756161620643,-0.19632454,0.11013328,9.89284134,-0.01597897,-0.04048005,-0.00852212
1691756161622554,-0.23463176,-0.02873042,9.85453415,-0.00532632,-0.04367584,-0.00852212
1691756161624558,-0.13886370,0.13886370,9.83538055,0.01704423,-0.00958738,-0.01384844
1691756161626661,-0.00478840,0.18674773,9.84016895,0.01917476,0.00958738,0.01171791
1691756161628576,-0.21068975,0.11013328,9.92157173,0.01597897,0.02769688,0.01065264
1691756161630570,-0.12928689,0.22984336,9.80186176,0.02876214,0.05113269,0.02024002
1691756161632579,-0.26336220,-0.02873042,9.83059216,0.04048005,0.05326322,0.00639159
1691756161634614,-0.29209262,0.10055647,9.90241814,0.02663161,0.02876214,0.00426106
1691756161636605,-0.08619126,0.06703765,9.90720654,0.00319579,0.00958738,-0.00532632
1691756161638544,-0.31603462,-0.09576806,10.02212811,0.01704423,-0.01810949,0.01384844
1691756161640599,-0.10055647,0.17238252,9.94072533,0.01171791,-0.04154531,0.00213053
1691756161642706,-0.09576806,0.03830723,10.09874249,0.01171791,-0.07137272,0.01065264
1691756161644601,-0.12449849,0.07182605,10.08437729,0.00852212,-0.08948221,-0.00426106
1691756161646571,0.11013328,0.14844051,9.97903252,0.00106526,-0.10226539,0.00000000
1691756161648534,-0.14365210,-0.18674773,10.07958889,-0.00213053,-0.09693906,-0.00639159
1691756161650745,-0.02394202,0.13407530,10.00776291,0.01065264,-0.08415589,0.01597897
1691756161652606,-0.18195933,-0.15322891,10.01255131,0.00958738,-0.02663161,0.01384844
1691756161654781,-0.26815060,0.11971009,9.94072533,0.00639159,0.00213053,0.00639159
1691756161656592,-0.22505496,0.01915361,9.82101536,0.03941479,0.04367584,0.00213053
1691756161658700,-0.35913026,0.00957681,9.93593693,0.03834952,0.05432849,-0.00426106
1691756161660631,0.02394202,0.19632454,9.97903252,0.03834952,0.05645901,-0.02982740
1691756161662492,-0.27293900,0.03351882,10.08916569,0.03195793,0.05326322,-0.01917476
1691756161664563,-0.00957681,0.27293900,9.89762974,0.04261058,0.05006743,-0.00426106
1691756161666588,0.08619126,0.22984336,9.95987892,0.04367584,0.05219796,-0.01384844
1691756161668594,-0.18674773,0.11492168,10.06522369,0.04793690,0.06817693,-0.01491370
1691756161670574,0.01436521,0.34955344,9.81143856,0.05539375,0.09267800,0.01278317
1691756161672632,-0.20111294,0.02394202,9.90241814,0.04687164,0.12144014,0.01278317
1691756161674563,-0.02873042,0.29209262,9.80186176,0.05539375,0.13102752,0.00213053
1691756161676716,-0.14365210,0.08140286,9.76355457,0.05539375,0.13954964,0.00213053
1691756161678566,-0.36870706,-0.13407530,9.93593693,0.05858954,0.12783173,0.00532632
1691756161680558,-0.09097967,0.11013328,9.81143856,0.04261058,0.08415589,0.01065264
1691756161682704,-0.31603462,-0.19153613,9.97424412,0.02450108,0.00958738,0.01917476
1691756161684631,-0.07182605,0.07661445,9.94072533,0.00426106,-0.00958738,0.01810949
1691756161686686,0.20590134,0.08140286,9.86411095,-0.00639159,-0.04367584,-0.00106526
1691756161688540,-0.07661445,-0.17238252,9.95030212,-0.00319579,-0.09480853,0.00213053
1691756161690553,0.01915361,0.08140286,9.90241814,0.00319579,-0.10865697,-0.00106526
1691756161692657,0.03830723,-0.08619126,9.94551373,0.01171791,-0.12676647,0.00426106
1691756161694676,-0.00478840,0.03351882,9.95509052,0.00426106,-0.13102752,-0.01384844
1691756161696597,-0.09576806,-0.07661445,9.87368774,-0.00745685,-0.12570120,0.01278317
1691756161698597,-0.07182605,-0.11013328,9.93114853,-0.01491370,-0.12037488,-0.01384844
1691756161700674,-0.06224924,0.05746084,9.90720654,-0.01810949,-0.11824435,-0.00958738
1691756161702609,-0.13407530,0.00000000,9.93593693,-0.02130529,-0.09800433,-0.02556635
1691756161704564,-0.24899697,-0.05267244,9.97424412,-0.01065264,-0.10333065,-0.01704423
1691756161706588,-0.18195933,0.06703765,9.94072533,-0.00319579,-0.09267800,-0.01065264
1691756161708658,-0.34476504,-0.15322891,9.98382092,-0.00532632,-0.06391586,0.00106526
1691756161710605,-0.14844051,0.17717093,9.89762974,0.00213053,-0.05326322,-0.00532632
1691756161712591,-0.22505496,0.09576806,9.95509052,0.00852212,-0.01810949,-0.00213053
1691756161714646,-0.27293900,0.17717093,9.87368774,0.03089267,0.03515373,-0.00319579
1691756161716623,-0.19632454,0.32561144,9.74918938,0.04367584,0.06391586,0.00532632
1691756161718551,-0.36391866,0.00957681,9.85932255,0.05858954,0.06924219,-0.00532632
1691756161720615,-0.20590134,0.16759412,9.73482418,0.06285060,0.06604639,0.00426106
1691756161722645,-0.35913026,-0.07661445,9.83059216,0.07350325,0.04474111,-0.00106526
1691756161724591,-0.29688102,0.12449849,9.71567059,0.06285060,0.02663161,0.01597897
1691756161726642,-0.08140286,0.27293900,9.76834297,0.04687164,0.00852212,0.00745685
1691756161728541,-0.28251579,-0.11971009,9.89284134,0.03941479,-0.02450108,-0.01491370
1691756161730639,0.08140286,0.06224924,9.75397778,0.04261058,-0.03089267,-0.02663161
1691756161732587,-0.30166942,-0.17238252,9.90720654,0.01278317,-0.02876214,-0.01917476
1691756161734680,-0.16759412,-0.08619126,9.83538055,0.00213053,-0.04687164,-0.02450108
1691756161736591,-0.00478840,0.19153613,9.78270817,0.01171791,-0.01384844,-0.03089267
1691756161738557,-0.32561144,-0.15322891,9.84495735,0.02450108,0.02769688,-0.02024002
1691756161740560,-0.08619126,0.13886370,9.64384460,0.00852212,0.05539375,-0.01171791
1691756161742665,-0.31603462,0.03351882,9.74440098,0.01065264,0.09800433,0.01065264
1691756161744618,-0.51714754,-0.18195933,9.71088219,0.04154531,0.12037488,0.01171791
1691756161746566,-0.23942018,0.29688102,9.58159542,0.05965481,0.13209279,-0.01597897
1691756161748566,-0.43574470,0.03351882,9.77313137,0.05539375,0.12357067,-0.01278317
1691756161750593,-0.16280572,0.13407530,9.58159542,0.05219796,0.10759171,0.00106526
1691756161752614,-0.06224924,0.19632454,9.63426781,0.05006743,0.07776430,-0.00106526
1691756161754634,-0.24899697,-0.08140286,9.72045898,0.02769688,0.05752428,0.00426106
1691756161756569,0.04788403,0.15801731,9.64384460,0.01597897,0.02556635,0.01491370
1691756161758544,-0.23942018,-0.11492168,9.74440098,0.00532632,-0.01065264,0.00532632
1691756161760588,-0.16280572,-0.07661445,9.62947941,0.00000000,-0.01704423,-0.01917476
1691756161762550,-0.03351882,0.16759412,9.64384460,0.00106526,-0.02130529,0.00852212
1691756161764563,-0.10534488,0.00000000,9.68694019,0.01171791,-0.00532632,0.01171791
1691756161766579,0.11492168,0.25378537,9.55286503,0.02130529,0.02024002,0.00639159
1691756161768585,-0.09576806,0.16280572,9.65820980,0.03515373,0.04900216,-0.01597897
1691756161770618,-0.14365210,0.10055647,9.71088219,0.05539375,0.05965481,0.00213053
1691756161772579,-0.13886370,0.14365210,9.67257500,0.05432849,0.06924219,0.00213053
1691756161774605,-0.43095630,-0.11492168,9.78270817,0.04793690,0.06285060,0.00852212
1691756161776682,-0.15801731,0.01915361,9.67257500,0.03834952,0.06285060,-0.01278317
1691756161778561,-0.26336220,0.00000000,9.75876617,0.04367584,0.06285060,-0.00639159
1691756161780574,-0.28730419,-0.03351882,9.76355457,0.03728426,0.07563377,-0.01491370
1691756161782577,-0.11492168,0.22026655,9.72524738,0.03089267,0.10013486,-0.01065264
1691756161784606,-0.29688102,-0.02873042,9.84974575,0.03834952,0.12144014,-0.01171791
1691756161786568,-0.08140286,0.08140286,9.74440098,0.03941479,0.14700650,-0.00745685
1691756161788549,-0.19153613,0.06703765,9.80186176,0.02130529,0.16298546,-0.01491370
1691756161790594,-0.26336220,0.01436521,9.82580376,0.01278317,0.16298546,-0.01384844
1691756161792671,-0.11492168,0.15801731,9.74918938,0.01597897,0.14487596,-0.01278317
1691756161794584,-0.32082301,-0.03351882,9.81622696,0.02769688,0.08735169,-0.01171791
1691756161796629,-0.05746084,0.07182605,9.72524738,0.01810949,0.06178534,0.00319579
1691756161798568,-0.13407530,0.07182605,9.88805294,0.02237055,0.01810949,0.00000000
1691756161800604,0.00478840,-0.06703765,9.78749657,0.00532632,-0.01278317,0.00106526
1691756161802589,0.24899697,0.11013328,9.78270817,-0.00106526,-0.05965481,0.00319579
1691756161804560,-0.05267244,-0.08140286,9.92636013,-0.01065264,-0.07669904,0.00532632
1691756161806580,0.11013328,0.10534488,9.82580376,-0.00639159,-0.08735169,-0.00639159
1691756161808586,-0.04788403,0.04788403,9.91199493,-0.02237055,-0.08415589,0.00106526
1691756161810711,-0.04788403,0.00000000,9.84974575,-0.03089267,-0.09054748,0.01065264
1691756161812620,-0.15322891,0.13407530,9.95987892,-0.01810949,-0.06817693,0.01278317
1691756161814574,-0.20590134,-0.11013328,10.00297451,-0.02343582,-0.04793690,0.01491370
1691756161816581,0.00957681,0.12449849,9.75397778,-0.02450108,-0.03728426,0.00319579
1691756161818606,-0.17238252,0.11971009,9.89762974,-0.02237055,-0.02769688,0.00532632
1691756161820640,-0.29209262,0.09097967,9.84974575,-0.02237055,-0.01810949,-0.01704423
1691756161822589,-0.12449849,0.26815060,9.74918938,-0.01917476,0.01171791,-0.02876214
1691756161824608,-0.37349546,0.01436521,9.90241814,0.00106526,0.04474111,0.00213053
1691756161826594,-0.24420857,0.14844051,9.65820980,0.02450108,0.06391586,0.01491370
1691756161828670,-0.33997664,0.17717093,9.79707336,0.05006743,0.10013486,0.00213053
1691756161830568,-0.48362875,0.03830723,9.78270817,0.06391586,0.12783173,0.00106526
1691756161832802,-0.17717093,0.36870706,9.58159542,0.06391586,0.14700650,0.01491370
1691756161834588,-0.55066639,-0.13886370,9.84016895,0.06285060,0.11930962,-0.00532632
1691756161836585,-0.18674773,0.18674773,9.70130539,0.07243798,0.11398330,-0.00532632
1691756161838547,-0.09097967,0.27293900,9.74918938,0.07776430,0.09693906,-0.00852212
1691756161840595,-0.36870706,-0.09097967,9.85453415,0.08309063,0.07243798,-0.01810949
1691756161842625,-0.03830723,0.16759412,9.67736340,0.04900216,0.05113269,-0.00958738
1691756161844569,-0.24420857,-0.03830723,9.90241814,0.03621899,0.01704423,-0.01278317
1691756161846624,-0.07661445,-0.20111294,9.78270817,0.01278317,0.00639159,-0.02130529
1691756161848608,0.11492168,0.10055647,9.80186176,0.00426106,-0.00213053,-0.02556635
1691756161850630,-0.13886370,-0.14365210,9.95030212,-0.01384844,-0.01491370,-0.01171791
1691756161852594,0.11013328,0.13407530,9.77791977,-0.01278317,-0.02663161,-0.01597897
1691756161854622,-0.14844051,-0.00478840,9.95987892,-0.00958738,-0.02876214,-0.00106526
1691756161856573,-0.14844051,-0.13407530,9.91199493,-0.00745685,-0.04474111,-0.01917476
1691756161858568,-0.04788403,0.08140286,9.86411095,0.01065264,-0.05326322,-0.00745685
1691756161860625,-0.22984336,-0.12928689,10.03170490,0.01491370,-0.06391586,-0.01065264
1691756161862607,0.08619126,0.04309563,9.88326454,0.01491370,-0.06924219,-0.01917476
1691756161864590,-0.04309563,0.07182605,10.05564690,0.01491370,-0.07030746,-0.01491370
1691756161866599,-0.03351882,0.01915361,10.04128170,0.01171791,-0.07563377,-0.01171791
1691756161868636,-0.06703765,0.19153613,9.95030212,0.00213053,-0.06604639,-0.01810949
1691756161870626,-0.27293900,-0.02394202,10.07958889,0.00106526,-0.05326322,-0.00639159
1691756161872606,-0.07661445,-0.02873042,9.91199493,-0.00213053,-0.04687164,0.00426106
1691756161874602,-0.23942018,-0.02394202,9.98382092,-0.02450108,-0.02130529,-0.01171791
1691756161876675,-0.22026655,-0.07182605,9.95987892,-0.02343582,-0.01917476,-0.01704423
1691756161878592,-0.23463176,0.11971009,9.91199493,-0.01065264,-0.01065264,-0.01278317
1691756161880580,-0.31603462,0.11971009,10.01255131,-0.00639159,-0.01171791,-0.01065264
1691756161882633,-0.12928689,0.07661445,9.89762974,-0.01917476,-0.01171791,-0.01597897
1691756161884625,-0.25857377,0.09576806,10.00776291,-0.02450108,-0.01384844,-0.02024002
1691756161886637,-0.18195933,0.01915361,9.98860931,-0.00852212,-0.00213053,-0.00319579
1691756161888545,-0.23942018,0.14844051,10.04607010,0.00000000,0.01171791,0.00319579
1691756161890607,-0.33997664,0.16759412,10.07001209,0.00532632,0.01597897,-0.00319579
1691756161892631,-0.20590134,0.06703765,9.93593693,0.02450108,0.04793690,0.00426106
1691756161894562,-0.37349546,0.13407530,10.07958889,0.04261058,0.09374327,0.00000000
1691756161896569,-0.30166942,0.06224924,9.90241814,0.02982740,0.11824435,0.00319579
1691756161898486,-0.18195933,0.16759412,9.97903252,0.01917476,0.11078750,0.00745685
1691756161900648,-0.30166942,0.02394202,9.94072533,0.01704423,0.09374327,0.00213053
1691756161902576,-0.14844051,0.09576806,9.82101536,0.01491370,0.08628642,0.00106526
1691756161904619,-0.32082301,0.05746084,9.99818611,0.00532632,0.04261058,-0.00745685
1691756161906561,-0.24420857,-0.07182605,9.92636013,0.00745685,0.02450108,0.00745685
1691756161908606,-0.10534488,-0.01915361,9.92157173,-0.00106526,-0.00213053,-0.00745685
1691756161910584,-0.22505496,0.09097967,10.03649330,-0.00958738,-0.00745685,-0.00106526
1691756161912601,0.13407530,0.17238252,9.78749657,-0.02130529,-0.00745685,-0.00532632
1691756161914578,-0.08140286,0.14365210,9.88805294,-0.02982740,0.01278317,0.00319579
1691756161916627,-0.10055647,0.08619126,9.79707336,-0.02663161,0.04580637,-0.00106526
1691756161918589,-0.06703765,0.04788403,9.76834297,-0.00426106,0.08522116,0.01810949
1691756161920650,-0.40701428,0.00478840,9.86889935,0.00426106,0.11504856,0.00852212
1691756161922588,-0.02873042,0.15801731,9.64384460,-0.00213053,0.11930962,0.00426106
1691756161924606,-0.38307226,0.06224924,9.73482418,-0.00213053,0.12357067,-0.00958738
1691756161926608,-0.30645782,0.06224924,9.73003578,0.00426106,0.11398330,-0.01704423
1691756161928594,0.03830723,0.14844051,9.65342140,0.01491370,0.07030746,-0.02237055
1691756161930586,-0.25378537,0.05267244,9.84016895,0.01704423,0.02556635,0.00000000
1691756161932582,-0.01915361,0.07661445,9.62469101,0.02556635,-0.00532632,-0.00532632
1691756161934561,-0.13886370,0.02394202,9.72524738,0.00852212,-0.06072007,-0.01278317
1691756161936624,0.13886370,0.13407530,9.56723022,-0.01171791,-0.08202536,-0.01704423
1691756161938564,0.13407530,0.04309563,9.49061584,-0.02130529,-0.07669904,-0.00319579
1691756161940648,-0.08140286,-0.04788403,9.70130539,-0.00958738,-0.06178534,0.00000000
1691756161942593,0.06703765,0.15801731,9.54328823,-0.01597897,-0.05645901,0.01597897
1691756161944590,-0.11492168,0.15801731,9.63905621,-0.02876214,-0.02663161,0.00000000
1691756161946637,-0.22984336,0.17238252,9.76355457,-0.04900216,-0.03941479,-0.00213053
1691756161948555,-0.01436521,0.17238252,9.63426781,-0.04154531,-0.04261058,-0.01491370
1691756161950597,-0.30645782,0.00000000,9.80665016,-0.02556635,-0.04793690,-0.01065264
1691756161952601,-0.15322891,0.12449849,9.75397778,-0.02769688,-0.06498113,-0.02343582
1691756161954648,-0.21068975,0.02873042,9.79228497,-0.04687164,-0.06817693,-0.02130529
1691756161956580,-0.28251579,0.06224924,9.88326454,-0.05006743,-0.05539375,-0.01278317
1691756161958576,-0.10534488,0.14365210,9.73003578,-0.03621899,-0.02876214,0.00532632
1691756161960616,-0.24420857,0.05267244,9.88326454,-0.03408846,0.00213053,0.01597897
1691756161962648,-0.17717093,0.20111294,9.80186176,-0.02876214,0.03089267,0.02450108
1691756161964573,-0.26336220,0.05267244,9.74918938,-0.02556635,0.05326322,0.01491370
1691756161966596,-0.33039984,0.21068975,9.81622696,-0.00213053,0.05539375,0.00639159
1691756161968578,-0.24899697,0.27772740,9.72045898,0.01278317,0.04154531,-0.00852212
1691756161970570,-0.34476504,0.14365210,9.81622696,0.01704423,0.01278317,-0.00852212
1691756161972573,-0.05746084,0.18195933,9.79707336,0.02024002,0.01278317,-0.01810949
1691756161974570,-0.20590134,-0.04309563,9.82101536,0.01917476,-0.00745685,-0.00106526
1691756161976641,-0.14365210,0.03351882,9.87847614,0.00319579,-0.04687164,0.00319579
1691756161978548,-0.00957681,0.11971009,9.84016895,-0.01491370,-0.04580637,0.00000000
1691756161980593,-0.15322891,-0.04788403,9.93114853,-0.01704423,-0.05752428,0.00213053
1691756161982584,-0.04309563,0.20590134,9.84016895,-0.02237055,-0.05219796,0.00532632
1691756161984655,-0.16759412,0.02394202,9.82580376,-0.03515373,-0.03515373,0.01704423
1691756161986605,-0.26815060,-0.00957681,9.86889935,-0.03089267,-0.00958738,-0.00213053
1691756161988601,-0.18674773,0.10055647,9.80186176,-0.02450108,0.01917476,-0.00213053
1691756161990626,-0.33039984,0.08619126,9.95030212,-0.03728426,0.05006743,0.00106526
1691756161992691,-0.21547815,0.15801731,9.89762974,-0.03621899,0.04367584,-0.00106526
1691756161994601,-0.42616791,-0.10055647,10.04128170,-0.02343582,0.04048005,-0.01384844
1691756161996576,-0.33039984,0.11492168,10.01733971,-0.02024002,0.04687164,-0.00852212
1691756161998575,-0.16280572,0.27772740,9.90241814,-0.02556635,0.04793690,-0.00852212
1691756162000632,-0.38307226,-0.06703765,10.08437729,-0.01917476,0.04687164,-0.01065264
1691756162002595,-0.22505496,0.15322891,10.01255131,-0.00639159,0.05539375,-0.01278317
1691756162004571,-0.19153613,0.04309563,10.00297451,0.00532632,0.06391586,-0.00958738
1691756162006590,-0.26815060,0.03830723,10.10831928,0.01491370,0.07882957,-0.00745685
1691756162008584,-0.08140286,0.23942018,9.95987892,0.01384844,0.09374327,0.00426106
1691756162010639,-0.30645782,0.01436521,10.11789608,0.00106526,0.09267800,0.00213053
1691756162012571,-0.16280572,0.18195933,10.03649330,-0.00319579,0.06391586,0.00213053
1691756162014569,-0.12928689,0.07661445,9.98860931,0.00426106,0.01810949,-0.01171791
1691756162016583,-0.26336220,-0.07182605,10.04128170,0.00852212,-0.02450108,-0.01597897
1691756162018603,0.13886370,0.14844051,9.94551373,-0.00958738,-0.06178534,-0.02982740
1691756162020618,-0.01436521,-0.12928689,10.05564690,-0.02982740,-0.10865697,-0.02024002
1691756162022585,0.08619126,0.05746084,10.01255131,-0.04154531,-0.10546118,-0.02769688
1691756162024624,0.05746084,0.11971009,9.94072533,-0.06072007,-0.09480853,-0.02130529
1691756162026678,-0.13886370,0.02394202,9.95987892,-0.05432849,-0.07563377,-0.01171791
1691756162028585,-0.05267244,0.22026655,9.70130539,-0.05219796,-0.05645901,-0.00426106
1691756162030572,-0.28251579,-0.11492168,9.83538055,-0.03089267,-0.00958738,-0.00319579
1691756162032603,-0.19153613,0.02394202,9.79707336,-0.01597897,-0.00106526,-0.00958738
1691756162034636,-0.17238252,0.06703765,9.70609379,0.00958738,-0.00958738,-0.00532632
1691756162036609,-0.43095630,-0.06703765,9.86411095,0.00319579,-0.01917476,0.00106526
1691756162038573,-0.16280572,0.19632454,9.76355457,-0.00639159,-0.02663161,-0.00639159
1691756162040573,-0.27772740,0.02873042,9.81622696,-0.02130529,-0.03941479,0.00532632
1691756162042590,-0.11492168,0.06224924,9.80186176,-0.01917476,-0.04793690,0.01597897
1691756162044577,0.01915361,0.17238252,9.75397778,-0.02769688,-0.04261058,0.02130529
1691756162046575,-0.23463176,-0.03830723,9.91678333,-0.01810949,-0.01065264,0.02556635
1691756162048580,-0.18195933,0.16280572,9.77313137,-0.01278317,0.00319579,0.02769688
1691756162050781,-0.39264908,0.02873042,9.81143856,-0.01171791,0.02024002,0.00532632
1691756162052625,-0.15322891,0.19153613,9.89284134,-0.01171791,0.01810949,0.01384844
1691756162054571,-0.05746084,0.05267244,9.87368774,-0.00745685,0.01491370,0.01384844
1691756162056575,-0.21068975,-0.05746084,9.96466732,-0.02024002,-0.01171791,0.01917476
1691756162058593,-0.02394202,0.18195933,9.90241814,-0.03089267,-0.02237055,0.02663161
1691756162060605,-0.22026655,0.10534488,9.94072533,-0.02130529,-0.04687164,0.03621899
1691756162062677,-0.14365210,-0.00478840,9.94072533,-0.02024002,-0.05752428,0.03408846
1691756162064590,-0.00478840,0.02873042,9.98860931,-0.03621899,-0.07456851,0.02982740
1691756162066636,-0.11971009,-0.15801731,10.04607010,-0.03408846,-0.08309063,0.03728426
1691756162068514,0.07661445,0.10534488,9.96945572,-0.03089267,-0.08202536,0.03408846
1691756162070617,-0.11492168,0.03351882,10.06522369,-0.02982740,-0.08096009,0.01810949
1691756162072647,-0.07661445,0.11492168,10.10353088,-0.03728426,-0.08948221,0.01704423
1691756162074622,-0.07661445,0.11013328,10.17056847,-0.04793690,-0.09800433,0.02130529
1691756162076708,-0.30166942,-0.19153613,10.22802925,-0.05326322,-0.09906960,0.00745685
1691756162078614,-0.06224924,0.08619126,10.15620327,-0.04580637,-0.10333065,-0.00745685
1691756162080599,-0.20111294,-0.08140286,10.30943298,-0.03515373,-0.10439591,0.01384844
1691756162082690,-0.12449849,0.09097967,10.27591324,-0.04048005,-0.10546118,0.01491370
1691756162084639,-0.08619126,0.25378537,10.29027843,-0.05006743,-0.08628642,0.01171791
1691756162086641,-0.31124622,-0.05267244,10.27591324,-0.04580637,-0.04154531,0.00532632
1691756162088677,-0.14844051,0.22026655,10.15141487,-0.03089267,-0.01810949,0.00532632
1691756162090749,-0.43095630,-0.00478840,10.26633644,-0.01917476,0.00852212,0.00532632
1691756162092642,-0.16280572,0.25857377,10.14183807,-0.01917476,0.00639159,0.00958738
1691756162094598,-0.14844051,0.15322891,10.17056847,-0.01917476,-0.00745685,0.00639159
1691756162096603,-0.36870706,-0.10534488,10.18014526,-0.02237055,-0.02663161,0.01810949
1691756162098639,-0.03830723,0.22984336,10.00297451,-0.01810949,-0.04048005,0.02769688
1691756162100597,-0.26336220,-0.01436521,10.18972206,-0.01171791,-0.06178534,0.01597897
1691756162102635,-0.17717093,0.06224924,10.01733971,-0.02237055,-0.07030746,0.03089267
1691756162104574,-0.04788403,0.21547815,10.03649330,-0.03302320,-0.06817693,0.01491370
1691756162106571,-0.29209262,-0.10534488,10.01255131,-0.03302320,-0.04793690,0.04367584
1691756162108606,0.00957681,0.31124622,9.85453415,-0.02769688,-0.02343582,0.01065264
1691756162110605,-0.29209262,0.05267244,10.04607010,-0.01278317,-0.00532632,-0.00106526
1691756162112641,-0.20590134,0.14844051,9.94551373,-0.00319579,-0.01491370,-0.02769688
1691756162114579,-0.05267244,0.33518824,9.93114853,-0.00532632,-0.01917476,0.00000000
1691756162116825,-0.40701428,-0.05746084,10.02691650,-0.00426106,-0.04261058,-0.00745685
1691756162118597,-0.03830723,0.25378537,9.80186176,-0.00639159,-0.07776430,0.01491370
1691756162120616,-0.24420857,0.01436521,10.03649330,-0.00639159,-0.10439591,0.00532632
1691756162122574,-0.19632454,-0.06703765,9.94551373,-0.01810949,-0.12463594,0.01171791
1691756162124585,0.04309563,0.18195933,9.95987892,-0.01810949,-0.12250541,0.00000000
1691756162126597,-0.25857377,-0.10055647,10.03649330,-0.02663161,-0.09587380,0.01278317
1691756162128560,-0.00957681,0.30166942,9.76355457,-0.01917476,-0.07882957,0.01278317
1691756162130571,-0.22026655,0.11013328,9.89284134,-0.01810949,-0.05006743,0.01810949
1691756162132603,-0.27772740,-0.02873042,9.87847614,-0.00958738,-0.05965481,0.01278317
1691756162134600,-0.10534488,0.14844051,9.77313137,-0.02876214,-0.06072007,0.01810949
1691756162136582,-0.45010993,-0.20590134,9.95987892,-0.02876214,-0.07989483,0.02130529
1691756162138558,-0.18195933,0.12449849,9.75397778,-0.03195793,-0.08948221,0.03195793
1691756162140574,-0.18674773,0.10055647,9.84016895,-0.03728426,-0.11930962,0.02769688
1691756162142629,-0.12449849,-0.04788403,9.84974575,-0.05858954,-0.13102752,0.02237055
1691756162144634,0.13407530,0.22026655,9.75876617,-0.06391586,-0.13954964,0.01810949
1691756162146587,-0.16280572,-0.07661445,9.91199493,-0.07456851,-0.15020229,0.01597897
1691756162148572,-0.08619126,0.10055647,9.75876617,-0.07030746,-0.14807175,0.02450108
1691756162150658,-0.20590134,0.06224924,9.83538055,-0.05752428,-0.14700650,0.02876214
1691756162152670,-0.25378537,-0.10534488,9.95509052,-0.05432849,-0.14700650,0.02982740
1691756162154584,-0.06224924,0.16280572,9.82101536,-0.05326322,-0.14381070,0.02450108
1691756162156612,-0.21068975,-0.01915361,9.95987892,-0.03515373,-0.13315806,0.02876214
1691756162158587,-0.11013328,0.19153613,9.86411095,-0.02556635,-0.11504856,0.02237055
1691756162160603,-0.22984336,0.28730419,9.91199493,-0.02663161,-0.07882957,0.02343582
1691756162162676,-0.37828386,0.02873042,9.96466732,-0.00852212,-0.05113269,0.01171791
1691756162164582,-0.25378537,0.23942018,9.82580376,0.01704423,-0.01704423,0.02024002
1691756162166619,-0.39743748,0.03351882,9.96466732,0.02343582,0.02237055,0.00958738
1691756162168591,-0.29688102,0.05746084,9.91678333,0.03621899,0.04580637,0.00213053
1691756162170592,-0.37828386,0.21068975,9.92157173,0.05645901,0.05326322,0.00852212
1691756162172568,-0.43574470,0.05746084,9.92636013,0.06072007,0.04687164,-0.00958738
1691756162174598,-0.15801731,0.29688102,9.80665016,0.05752428,0.01810949,-0.01917476
1691756162176689,-0.31603462,0.07661445,9.85453415,0.06711166,-0.02556635,-0.02876214
1691756162178565,-0.19153613,-0.04309563,9.53849983,0.04580637,-0.03728426,-0.01278317
1691756162180573,-0.23463176,0.08619126,9.37090588,0.03515373,-0.09267800,-0.02663161
1691756162182586,-0.28730419,-0.07661445,9.10275459,0.02130529,-0.11717909,-0.00319579
1691756162184743,-0.08619126,0.13407530,8.68137550,0.01704423,-0.13848437,0.00639159
1691756162186587,-0.31603462,0.02873042,8.59518433,0.00852212,-0.13635385,-0.01171791
1691756162188559,-0.10534488,0.10055647,8.12113190,-0.00639159,-0.12357067,-0.01171791
1691756162190588,-0.15322891,0.21068975,7.83861637,0.01917476,-0.12996227,-0.00532632
1691756162192641,-0.41659111,0.22026655,7.71411800,0.03728426,-0.02024002,0.02024002
1691756162194583,-0.27772740,0.27772740,7.25921965,0.07563377,0.00319579,0.00532632
1691756162196598,-0.46447513,0.18195933,7.22091246,0.08522116,0.06498113,-0.01171791
1691756162198563,-0.54587799,0.32561144,7.09641361,0.07882957,0.14700650,0.02343582
1691756162200625,-0.48841715,0.17717093,7.02458763,0.09906960,0.12250541,0.00106526
1691756162202723,-0.47884035,0.06224924,6.82347488,0.10120012,0.17683390,-0.00426106
1691756162204585,-0.43095630,0.23942018,6.71813011,0.11398330,0.13528858,-0.00319579
1691756162206572,-0.49799395,0.23942018,6.67024612,0.11717909,0.09054748,-0.01171791
1691756162208563,-0.42616791,0.01436521,6.58405447,0.10546118,0.09267800,0.00000000
1691756162210683,-0.32082301,0.02394202,6.64630413,0.09587380,0.02130529,-0.03408846
1691756162212577,-0.17717093,0.16280572,6.34942293,0.07882957,0.00213053,-0.02237055
1691756162214574,-0.12928689,0.05746084,6.36857653,0.07669904,-0.01384844,-0.00745685
1691756162216587,-0.15322891,-0.04788403,6.51222849,0.08309063,-0.02982740,-0.01704423
1691756162218585,-0.02873042,0.16759412,6.40209532,0.08415589,0.02663161,-0.01491370
1691756162220581,-0.01436521,0.03830723,6.21534777,0.10333065,0.05006743,0.00319579
1691756162222584,-0.23463176,-0.03830723,6.37815332,0.11717909,0.10972223,0.01278317
1691756162224739,-0.33039984,0.22026655,6.28717375,0.16192019,0.18855180,0.01810949
1691756162226656,-0.41659111,0.04788403,6.29675055,0.15765914,0.25672874,-0.00426106
1691756162228629,-0.40701428,0.04788403,6.36857653,0.15659387,0.27377295,0.00852212
1691756162230577,-0.45968673,0.04788403,6.33984613,0.15020229,0.28762141,0.01171791
1691756162232598,-0.60333884,0.18195933,6.35421133,0.15233281,0.30573088,0.00000000
1691756162234592,-0.56503159,0.07182605,6.34463453,0.17150757,0.28442562,-0.02024002
1691756162236593,-0.31603462,0.20590134,6.40688372,0.15765914,0.25779399,-0.01810949
1691756162238557,-0.45968673,0.05746084,6.50265169,0.14807175,0.26098979,-0.01491370
1691756162240590,-0.33997664,-0.01915361,6.43561411,0.14700650,0.24394555,-0.02450108
1691756162242653,-0.23463176,0.03830723,6.49786329,0.13102752,0.22690132,-0.03302320
1691756162244575,-0.11492168,-0.02873042,6.52180529,0.10546118,0.20559603,-0.00639159
1691756162246670,-0.09576806,-0.04309563,6.59841967,0.07669904,0.16724652,-0.00745685
1691756162248562,-0.07182605,-0.14844051,6.72291851,0.06498113,0.14168017,-0.00852212
1691756162250727,-0.14365210,-0.01436521,6.63193893,0.04474111,0.10439591,-0.00639159
1691756162252597,-0.03830723,-0.01436521,6.78516769,0.04687164,0.04048005,-0.01704423
1691756162254577,-0.09576806,-0.05746084,6.85220528,0.04687164,0.02769688,-0.01171791
1691756162256572,0.00000000,-0.01915361,6.84262848,0.04580637,0.00319579,-0.00532632
1691756162258586,-0.00957681,0.12928689,6.82826328,0.05326322,-0.02769688,0.00426106
1691756162260624,-0.01436521,-0.06703765,7.09641361,0.02130529,-0.02237055,0.00852212
1691756162262517,-0.08140286,-0.03351882,7.09641361,0.02237055,0.00106526,-0.00532632
1691756162264631,-0.11971009,0.06703765,7.08204842,0.01917476,-0.00745685,0.01384844
1691756162266614,-0.12449849,-0.00478840,7.24006605,0.00745685,-0.01065264,-0.00106526
1691756162268590,-0.24420857,-0.03351882,7.33583403,-0.00319579,-0.00106526,0.00639159
1691756162270776,-0.25378537,0.03351882,7.27837324,-0.00213053,0.02556635,0.00319579
1691756162272573,-0.18674773,-0.04309563,7.50821638,-0.00958738,0.02450108,0.01278317
1691756162274591,-0.20590134,0.08619126,7.52258158,-0.01597897,0.02024002,0.01278317
1691756162276651,-0.30166942,0.15322891,7.54173517,-0.00106526,0.05219796,0.00426106
1691756162278576,-0.27772740,0.12928689,7.61356163,0.01597897,0.07243798,0.00000000
1691756162280595,-0.31124622,0.18195933,7.78115559,0.01704423,0.04900216,0.00000000
1691756162282700,-0.38786069,0.22984336,7.83861637,0.00532632,0.04580637,0.00106526
1691756162284624,-0.33997664,0.10534488,7.85776997,0.01384844,0.05645901,0.00532632
1691756162286614,-0.39743748,0.11492168,8.06367111,0.02769688,0.05006743,0.00426106
1691756162288556,-0.36391866,0.09576806,8.15943909,0.01065264,0.03089267,0.01491370
1691756162290588,-0.57460839,-0.36391866,8.29351425,0.00000000,0.04580637,-0.00958738
1691756162292767,-0.54108959,-0.27772740,8.30787945,0.00745685,0.05858954,-0.00532632
1691756162294592,-0.53151280,-0.43095630,8.21689987,-0.00319579,0.06711166,0.00958738
1691756162296595,-0.54108959,-0.29688102,8.33182144,-0.02663161,0.07989483,0.01491370
1691756162298566,-0.50757074,-0.20111294,8.42280197,-0.02450108,0.09374327,0.01384844
1691756162300588,-0.42616791,-0.21068975,8.39407158,-0.00532632,0.10972223,0.00532632
1691756162302639,-0.50757074,-0.30166942,8.65264511,-0.00319579,0.12996227,-0.00745685
1691756162304616,-0.51235914,-0.23463176,8.71489429,-0.01810949,0.12357067,-0.00426106
1691756162306580,-0.34955344,-0.10055647,8.53772354,-0.00639159,0.12250541,-0.00319579
1691756162308619,-0.45010993,-0.14365210,8.85375786,0.00639159,0.13848437,0.01171791
1691756162310606,-0.30166942,0.05746084,8.80108547,0.01491370,0.12144014,0.01278317
1691756162312680,-0.17717093,0.16759412,8.73404789,0.00745685,0.10972223,0.02982740
1691756162314586,-0.29688102,-0.01436521,9.04050541,0.00426106,0.10759171,0.02663161
1691756162316631,-0.04788403,0.18674773,8.88248825,0.01065264,0.09693906,0.02237055
1691756162318600,-0.10055647,0.17717093,8.97346783,0.00532632,0.08628642,0.01065264
1691756162320618,-0.28730419,0.00478840,9.16979218,-0.00852212,0.08948221,0.00426106
1691756162322667,-0.05746084,0.18674773,9.00698662,-0.01810949,0.07243798,-0.01065264
1691756162324576,-0.16759412,-0.05746084,9.20809937,-0.01171791,0.07243798,-0.01704423
1691756162326783,-0.17717093,-0.08619126,9.25119495,-0.01810949,0.07137272,-0.00639159
1691756162328582,-0.17717093,0.11013328,9.17936897,-0.01704423,0.05113269,-0.00213053
1691756162330582,-0.31124622,-0.06703765,9.36132908,-0.02556635,0.05326322,0.00426106
1691756162332676,-0.19632454,0.10534488,9.31344414,-0.03408846,0.04261058,0.00532632
1691756162334668,-0.11492168,0.10534488,9.36611748,-0.04154531,0.01171791,0.00852212
1691756162336667,-0.06703765,-0.00957681,9.49061584,-0.05858954,0.00213053,0.00426106
1691756162338563,-0.12449849,0.07182605,9.42357826,-0.06391586,-0.00852212,-0.00426106
1691756162340598,-0.09097967,0.02873042,9.45709705,-0.05752428,-0.03408846,-0.00213053
1691756162342629,-0.04309563,0.07661445,9.51934624,-0.05113269,-0.04367584,-0.00532632
1691756162344631,-0.23942018,0.11492168,9.53371143,-0.04367584,-0.05113269,-0.00426106
1691756162346578,-0.07182605,0.10534488,9.44273186,-0.03621899,-0.05645901,-0.00852212
1691756162348590,-0.14844051,0.03351882,9.47146225,-0.03834952,-0.04261058,-0.01065264
1691756162350647,-0.20111294,0.08140286,9.50019264,-0.03621899,-0.04474111,-0.00852212
1691756162352626,-0.06703765,0.11971009,9.44752026,-0.03195793,-0.03302320,-0.02343582
1691756162354608,-0.34955344,0.03351882,9.59117222,-0.03941479,0.00639159,-0.02556635
1691756162356570,-0.21068975,0.21547815,9.48582745,-0.03834952,0.00639159,-0.02343582
1691756162358625,-0.19632454,0.05746084,9.53371143,-0.03302320,0.02237055,-0.01491370
1691756162360626,-0.30645782,0.03830723,9.66299820,-0.04048005,0.03834952,-0.01171791
1691756162362581,-0.03830723,0.13886370,9.52413464,-0.05006743,0.03515373,0.00213053
1691756162364623,-0.30166942,-0.04309563,9.66778660,-0.05432849,0.02130529,-0.00426106
1691756162366629,-0.26815060,0.15322891,9.63905621,-0.05539375,0.01597897,0.00213053
1691756162368594,-0.20111294,0.06224924,9.66778660,-0.07243798,0.01917476,-0.00106526
1691756162370594,-0.40701428,-0.08140286,9.85932255,-0.06498113,0.01171791,0.01278317
1691756162372581,-0.11971009,0.11971009,9.76355457,-0.04793690,0.02450108,0.01278317
1691756162374602,-0.23942018,-0.05267244,9.87847614,-0.05113269,0.03089267,0.01384844
1691756162376656,-0.20590134,0.20111294,9.91678333,-0.05965481,0.04580637,0.00106526
1691756162378569,-0.06703765,0.22984336,9.85932255,-0.05219796,0.06711166,0.02024002
1691756162380589,-0.35434186,0.09097967,10.07001209,-0.03941479,0.07882957,0.00319579
1691756162382655,-0.16280572,0.20590134,9.93593693,-0.03302320,0.10439591,0.00319579
1691756162384656,-0.28251579,-0.05267244,10.03170490,0.00000000,0.10226539,0.00106526
1691756162386595,-0.41659111,0.00957681,10.08437729,0.00000000,0.10120012,0.01597897
1691756162388570,-0.12928689,0.14844051,9.95030212,-0.01065264,0.09800433,0.00958738
1691756162390645,-0.37828386,-0.03351882,10.14183807,-0.01917476,0.07882957,0.02556635
1691756162392608,-0.08619126,0.17238252,10.05085850,-0.02237055,0.07350325,0.02876214
1691756162394647,-0.09097967,0.01915361,10.05564690,-0.03515373,0.06498113,0.01384844
1691756162396574,-0.25378537,0.01436521,10.17535686,-0.03408846,0.06072007,0.01065264
1691756162398588,-0.05267244,0.08619126,10.04128170,-0.03834952,0.05432849,0.01597897
1691756162400646,-0.25857377,-0.06703765,10.17535686,-0.03941479,0.05539375,0.01065264
1691756162402595,-0.15322891,0.16280572,10.12747288,-0.03728426,0.06072007,-0.00213053
1691756162404627,-0.07661445,0.06703765,10.05564690,-0.03728426,0.06285060,-0.00319579
1691756162406679,-0.21547815,0.10534488,10.19451046,-0.04793690,0.06072007,-0.00958738
1691756162408583,0.00478840,0.19153613,10.05085850,-0.04687164,0.05219796,-0.00106526
1691756162410620,-0.24420857,0.00000000,10.20887566,-0.03834952,0.04687164,0.00213053
1691756162412623,-0.20111294,0.18674773,10.18014526,-0.03302320,0.02982740,-0.00106526
1691756162414606,-0.08619126,0.03351882,10.06522369,-0.03408846,0.00745685,-0.00213053
1691756162416615,-0.17238252,0.06703765,10.20887566,-0.03941479,-0.01597897,0.00639159
1691756162418622,0.06224924,0.12449849,10.10831928,-0.03621899,-0.03408846,-0.00106526
1691756162420614,-0.08140286,-0.04788403,10.21366405,-0.03834952,-0.04474111,-0.00213053
1691756162422584,-0.05746084,0.25378537,10.20887566,-0.04367584,-0.05752428,-0.00426106
1691756162424690,-0.07661445,0.03351882,10.12268448,-0.05113269,-0.05645901,0.00106526
1691756162426651,-0.15322891,0.04309563,10.17056847,-0.04580637,-0.04261058,-0.00213053
1691756162428668,-0.00478840,0.13886370,10.05085850,-0.03302320,-0.03408846,0.00532632
1691756162430590,-0.17717093,-0.10055647,10.11310768,-0.04048005,-0.02024002,-0.00106526
1691756162432629,-0.18195933,0.24420857,10.11789608,-0.05006743,-0.01917476,0.00319579
1691756162434645,-0.23463176,0.04309563,10.13226128,-0.06178534,-0.01597897,0.01171791
1691756162436617,-0.21068975,0.16280572,10.13704967,-0.04900216,-0.00852212,0.00958738
1691756162438585,-0.04788403,0.24420857,10.10353088,-0.04154531,-0.01384844,0.01278317
1691756162440611,-0.21547815,-0.02873042,10.17056847,-0.03408846,-0.01171791,0.00532632
1691756162442714,-0.13886370,0.29688102,10.09395409,-0.03195793,-0.00745685,-0.00319579
1691756162444631,-0.21547815,-0.09576806,10.17056847,-0.03834952,-0.01491370,-0.00426106
1691756162446692,-0.20111294,0.10534488,10.07958889,-0.04474111,-0.02663161,-0.00958738
1691756162448574,-0.08140286,0.15801731,10.07958889,-0.04900216,-0.02982740,-0.02024002
1691756162450621,-0.26336220,-0.17238252,10.13704967,-0.03515373,-0.03834952,-0.01917476
1691756162452609,-0.03351882,0.31124622,10.02691650,-0.04154531,-0.04474111,-0.00958738
1691756162454595,-0.20590134,0.08140286,10.14183807,-0.04793690,-0.05219796,-0.00745685
1691756162456604,-0.09097967,0.11971009,10.01255131,-0.03834952,-0.05965481,0.00000000
1691756162458621,-0.01436521,0.25378537,10.03649330,-0.03302320,-0.05539375,0.00106526
1691756162460626,-0.29688102,-0.17238252,10.14662647,-0.05006743,-0.05752428,0.00639159
1691756162462577,-0.04309563,0.17238252,10.04128170,-0.05645901,-0.07456851,0.00852212
1691756162464580,-0.29688102,-0.13886370,10.12747288,-0.06072007,-0.07563377,0.01065264
1691756162466621,-0.15801731,0.00957681,10.08916569,-0.06391586,-0.07137272,0.00426106
1691756162468605,0.00478840,0.25857377,10.07958889,-0.04900216,-0.06924219,0.00639159
1691756162470592,-0.24420857,-0.05267244,10.16578007,-0.04474111,-0.07030746,0.01917476
1691756162472582,-0.11492168,0.22505496,10.03649330,-0.05432849,-0.05539375,0.00745685
1691756162474621,-0.31603462,-0.01915361,10.12747288,-0.05326322,-0.03621899,0.00213053
1691756162476589,-0.31603462,0.00478840,10.10831928,-0.03834952,-0.02556635,0.00426106
1691756162478584,-0.28730419,0.08619126,10.14183807,-0.03834952,-0.03302320,-0.00532632
1691756162480584,-0.41180268,-0.13886370,10.15620327,-0.04154531,-0.03408846,-0.00319579
1691756162482749,-0.21547815,0.16759412,10.01733971,-0.03195793,-0.03728426,0.01278317
1691756162484642,-0.41659111,-0.13886370,10.11310768,-0.03515373,-0.04793690,0.00426106
1691756162486728,-0.22026655,0.16759412,10.07958889,-0.02982740,-0.04793690,-0.00639159
1691756162488565,-0.14844051,0.27293900,10.05085850,-0.02343582,-0.04474111,-0.00106526
1691756162490618,-0.38307226,-0.12449849,10.12268448,-0.01917476,-0.03941479,0.01278317
1691756162492724,-0.11013328,0.14844051,9.99339771,-0.02556635,-0.03515373,-0.00532632
1691756162494637,-0.30645782,-0.01915361,10.11310768,-0.02343582,-0.02556635,-0.00745685
1691756162496621,-0.23463176,0.08140286,10.13226128,-0.02024002,-0.02237055,-0.00852212
1691756162498599,-0.10055647,0.23942018,10.05564690,-0.02024002,-0.01704423,0.00000000
1691756162500647,-0.31603462,0.01915361,10.11789608,-0.01597897,-0.03089267,0.00213053
1691756162502656,-0.09097967,0.25857377,10.03170490,-0.00639159,-0.03941479,0.00958738
1691756162504711,-0.28730419,-0.00478840,10.11310768,-0.00958738,-0.04687164,-0.00213053
1691756162506596,-0.22984336,0.01436521,10.01255131,-0.02982740,-0.05326322,0.00745685
1691756162508586,-0.15801731,0.13407530,10.00297451,-0.03834952,-0.06391586,-0.00958738
1691756162510626,-0.25857377,-0.01436521,10.01733971,-0.03195793,-0.06391586,0.00000000
1691756162512584,0.00478840,0.30645782,9.91199493,-0.01704423,-0.06178534,-0.00639159
1691756162514586,-0.32082301,0.00957681,9.95509052,-0.00852212,-0.04261058,0.01704423
1691756162516615,-0.11013328,0.12449849,9.93593693,-0.00532632,-0.02769688,0.00852212
1691756162518643,-0.12928689,0.16759412,9.98382092,-0.01491370,-0.00745685,0.01704423
1691756162520530,-0.35434186,-0.04309563,9.98382092,-0.02237055,0.00319579,-0.00106526
1691756162522584,-0.19153613,0.13886370,9.97424412,-0.02024002,0.01597897,0.01384844
1691756162524635,-0.34476504,-0.08140286,10.00776291,-0.02450108,0.02343582,0.00000000
1691756162526694,-0.22984336,0.03351882,9.83059216,-0.04154531,0.01597897,0.00426106
1691756162528590,-0.18674773,0.06703765,9.92157173,-0.04687164,0.00852212,-0.00958738
1691756162530591,-0.40222588,-0.19632454,9.96945572,-0.04048005,-0.00319579,0.00319579
1691756162532656,-0.08619126,0.17238252,9.84974575,-0.03408846,-0.01065264,-0.00532632
1691756162534741,-0.15801731,0.00478840,9.94551373,-0.02876214,-0.01917476,-0.00213053
1691756162536618,-0.03351882,0.25378537,9.75876617,-0.01491370,-0.01810949,-0.00639159
1691756162538567,0.00000000,0.22505496,9.84016895,-0.01384844,-0.02237055,-0.00213053
1691756162540597,-0.09576806,0.00000000,9.85932255,-0.00532632,-0.03515373,0.00426106
1691756162542682,-0.01915361,0.28730419,9.76834297,-0.00319579,-0.04261058,0.01491370
1691756162544613,-0.25378537,0.02394202,9.95030212,-0.00213053,-0.04687164,0.00745685
1691756162546630,-0.17238252,-0.09576806,9.87368774,-0.00213053,-0.05113269,0.00532632
1691756162548566,-0.02394202,0.20590134,9.90241814,-0.00532632,-0.05858954,0.01171791
1691756162550629,-0.29209262,-0.03830723,10.03170490,-0.01597897,-0.06924219,0.01065264
1691756162552631,0.00000000,0.25857377,9.81143856,-0.01278317,-0.06498113,-0.00106526
1691756162554590,-0.20111294,0.14365210,9.94551373,0.00000000,-0.05219796,0.00958738
1691756162556637,-0.20111294,0.00957681,9.89284134,0.00213053,-0.04580637,0.01384844
1691756162558595,-0.16759412,0.16280572,9.95987892,0.00958738,-0.04474111,0.01491370
1691756162560593,-0.39743748,-0.09097967,10.00297451,0.01704423,-0.04580637,0.01704423
1691756162562723,-0.06224924,0.21547815,9.83059216,0.02343582,-0.04474111,0.01278317
1691756162564588,-0.26815060,0.16280572,9.95509052,0.01597897,-0.04580637,0.01065264
1691756162566621,-0.16280572,-0.01915361,9.92636013,0.00106526,-0.05113269,0.01491370
1691756162568603,-0.02394202,0.17717093,9.86411095,-0.00639159,-0.05326322,0.00745685
1691756162570632,-0.22984336,0.02873042,9.98860931,0.00319579,-0.05326322,0.00000000
1691756162572579,-0.07182605,0.21068975,9.85453415,0.00958738,-0.04793690,-0.00106526
1691756162574621,-0.30645782,0.14365210,9.90241814,0.02450108,-0.04261058,-0.00426106
1691756162576641,-0.25857377,-0.07182605,9.87368774,0.03728426,-0.03728426,-0.01384844
1691756162578562,-0.17717093,0.09576806,9.86889935,0.04474111,-0.03515373,-0.00639159
1691756162580589,-0.21547815,-0.01915361,9.87368774,0.03195793,-0.03195793,0.00426106
