timestamp,accel_x,accel_y,accel_z,gyro_x,gyro_y,gyro_z
1704701992660821,-0.00478840,0.00000000,9.95030212,-0.00639159,0.00319579,0.00000000
1704701992662806,-0.00957681,0.00478840,9.95509052,-0.00958738,-0.00319579,0.00958738
1704701992664812,-0.00957681,0.00478840,9.95509052,-0.00852212,0.00213053,0.00532632
1704701992666808,-0.00957681,0.00000000,9.95030212,-0.00106526,0.00639159,-0.00852212
1704701992668855,-0.00957681,0.00000000,9.95509052,0.00639159,0.01278317,-0.02556635
1704701992670767,-0.01436521,0.00000000,9.95987892,-0.00106526,0.00745685,-0.01704423
1704701992672844,-0.01915361,0.00957681,9.96466732,-0.00639159,-0.00319579,-0.00532632
1704701992674806,-0.01915361,0.00478840,9.96466732,-0.01597897,-0.00319579,0.00958738
1704701992676818,-0.01915361,0.00000000,9.96466732,-0.01065264,-0.00106526,0.01065264
1704701992678813,-0.01915361,-0.00478840,9.96466732,0.00213053,0.00532632,-0.00745685
1704701992680796,-0.02394202,-0.00478840,9.96466732,0.00958738,0.00745685,-0.01704423
1704701992682776,-0.02394202,-0.00478840,9.96945572,0.00426106,0.00319579,-0.01810949
1704701992684841,-0.02394202,-0.00478840,9.96945572,-0.00639159,0.00106526,-0.00745685
1704701992686830,-0.02394202,-0.00957681,9.96945572,-0.00958738,-0.00213053,0.00745685
1704701992688808,-0.02394202,-0.00957681,9.97424412,-0.00639159,0.00106526,0.00852212
1704701992690900,-0.02394202,-0.01436521,9.97424412,0.00532632,0.00426106,-0.00106526
1704701992692781,-0.02394202,-0.01436521,9.97424412,0.01384844,0.00745685,-0.02024002
1704701992694824,-0.02394202,-0.01915361,9.97424412,0.01278317,0.00745685,-0.02556635
1704701992696793,-0.01915361,-0.02394202,9.97424412,0.00213053,0.00852212,-0.01491370
1704701992698815,-0.01436521,-0.02394202,9.97903252,-0.00745685,0.00319579,0.00213053
1704701992700829,-0.01436521,-0.02394202,9.97903252,-0.00319579,0.00426106,0.00852212
1704701992702830,-0.01436521,-0.02394202,9.98382092,0.00639159,0.00319579,0.00852212
1704701992704821,-0.01436521,-0.02873042,9.97903252,0.01704423,0.00532632,-0.00745685
1704701992706810,-0.00478840,-0.03351882,9.97903252,0.01810949,0.01065264,-0.02343582
1704701992708819,-0.00478840,-0.03351882,9.97903252,0.01065264,0.01278317,-0.02343582
1704701992710806,0.00000000,-0.02873042,9.98382092,0.00106526,0.00852212,-0.00639159
1704701992712818,0.00000000,-0.02394202,9.98382092,-0.00426106,0.00213053,0.01065264
1704701992714742,-0.00478840,-0.01915361,9.98860931,0.00213053,-0.00319579,0.01384844
1704701992716787,0.00000000,-0.01915361,9.98382092,0.01171791,0.00213053,-0.01278317
1704701992718856,0.00000000,-0.01915361,9.97424412,0.01278317,0.00852212,-0.01917476
1704701992720719,0.00478840,-0.01915361,9.97424412,0.00745685,0.01171791,-0.01810949
1704701992722945,0.00000000,-0.00478840,9.96945572,-0.00426106,0.00000000,0.00106526
1704701992724797,0.00000000,-0.00478840,9.97424412,-0.01065264,-0.00426106,0.01491370
1704701992726808,-0.00478840,0.00000000,9.96945572,-0.00852212,-0.00639159,0.01384844
1704701992728826,0.00000000,0.00000000,9.96945572,0.00745685,0.00213053,-0.00745685
1704701992730917,0.00000000,0.00478840,9.96466732,0.01171791,0.01065264,-0.02237055
1704701992732801,-0.00478840,0.00478840,9.96466732,0.01278317,0.01065264,-0.02982740
1704701992734827,-0.00957681,0.01436521,9.96945572,-0.00426106,0.00213053,-0.00745685
1704701992736933,-0.00957681,0.01436521,9.96945572,-0.01278317,-0.00213053,0.00426106
1704701992738809,-0.00478840,0.01436521,9.96945572,-0.01171791,-0.00426106,0.00426106
1704701992740776,-0.00478840,0.01436521,9.95987892,0.00106526,0.00319579,-0.00426106
1704701992742829,-0.00478840,0.01436521,9.95987892,0.00958738,0.00745685,-0.01704423
1704701992744881,-0.00478840,0.01436521,9.95987892,0.00852212,0.00852212,-0.02450108
1704701992746817,-0.00957681,0.01915361,9.95509052,-0.00745685,0.00426106,-0.00319579
1704701992748800,-0.00478840,0.01915361,9.95987892,-0.01491370,0.00106526,0.00532632
1704701992750801,-0.00478840,0.01436521,9.95509052,-0.01810949,0.00213053,0.01597897
1704701992752831,-0.00478840,0.01436521,9.95509052,0.00106526,0.00319579,-0.00319579
1704701992754813,-0.00478840,0.01436521,9.95030212,0.01065264,0.00639159,-0.01491370
1704701992756775,-0.00957681,0.01436521,9.95030212,0.01065264,0.00639159,-0.02450108
1704701992758826,-0.00478840,0.00957681,9.94551373,-0.00639159,0.00745685,-0.01065264
1704701992760796,-0.00478840,0.00957681,9.94551373,-0.01491370,0.01065264,0.00000000
1704701992762807,0.00000000,0.00478840,9.95030212,-0.01810949,0.00532632,0.00852212
1704701992764796,-0.00478840,0.00478840,9.95030212,-0.00426106,0.00426106,0.00213053
1704701992766778,-0.00957681,0.00478840,9.95030212,0.00532632,0.00319579,-0.00745685
1704701992768819,-0.00478840,0.00000000,9.94551373,0.01065264,0.00852212,-0.01917476
1704701992770763,-0.00478840,-0.00957681,9.94551373,0.00106526,0.01171791,-0.01704423
1704701992772828,-0.00478840,-0.00957681,9.94551373,-0.00639159,0.01065264,-0.00639159
1704701992774811,-0.00478840,-0.00957681,9.95030212,-0.00958738,0.00745685,0.00852212
1704701992776825,-0.00957681,-0.00957681,9.95509052,0.00213053,0.00000000,0.00639159
1704701992778894,-0.00957681,-0.01436521,9.95509052,0.01171791,0.00319579,-0.00319579
1704701992780790,-0.00478840,-0.02394202,9.95030212,0.02130529,0.00745685,-0.02237055
1704701992782778,-0.00478840,-0.02873042,9.94551373,0.01278317,0.01278317,-0.02130529
1704701992784821,-0.00478840,-0.02873042,9.95030212,0.00426106,0.00426106,-0.01065264
1704701992786962,-0.00478840,-0.02873042,9.95509052,-0.00532632,0.00000000,0.00852212
1704701992788839,-0.00957681,-0.02873042,9.95509052,0.00213053,-0.00426106,0.00852212
1704701992790760,-0.00957681,-0.03351882,9.95509052,0.01384844,-0.00213053,-0.00319579
1704701992792828,-0.00478840,-0.03830723,9.95030212,0.02237055,0.00745685,-0.02024002
1704701992794862,-0.00478840,-0.03830723,9.95030212,0.02024002,0.01065264,-0.02343582
1704701992796850,-0.00478840,-0.03830723,9.95030212,0.00852212,0.00852212,-0.00852212
1704701992798849,-0.00478840,-0.03351882,9.95030212,-0.00426106,0.00319579,0.00319579
1704701992800845,-0.00478840,-0.03351882,9.95509052,-0.00426106,0.00106526,0.00639159
1704701992802865,-0.00478840,-0.03351882,9.95030212,0.00639159,0.00532632,0.00426106
1704701992804872,0.00000000,-0.03351882,9.95030212,0.02130529,0.00745685,-0.01278317
1704701992806807,0.00000000,-0.02873042,9.95030212,0.02556635,0.00639159,-0.02343582
1704701992808803,0.00000000,-0.02394202,9.95030212,0.01065264,0.00745685,-0.01810949
1704701992810794,0.00000000,-0.01915361,9.95509052,-0.00745685,0.00532632,0.00639159
1704701992812812,0.00478840,-0.01436521,9.95509052,-0.00852212,0.00639159,0.00745685
1704701992814937,0.00478840,-0.00957681,9.95509052,0.00000000,0.00532632,0.00000000
1704701992816884,0.00000000,-0.00478840,9.95509052,0.01491370,0.00532632,-0.01171791
1704701992818887,-0.00478840,0.00000000,9.95987892,0.01704423,0.00426106,-0.02024002
1704701992820799,-0.00478840,0.00000000,9.95987892,0.00426106,0.00745685,-0.00958738
1704701992822813,0.00000000,0.00478840,9.95509052,-0.01491370,0.00745685,-0.00106526
1704701992824820,0.00478840,0.00957681,9.95987892,-0.02343582,0.00745685,0.00852212
1704701992826867,0.00478840,0.01436521,9.95987892,-0.01171791,0.00639159,0.00639159
1704701992828874,0.00478840,0.01915361,9.95987892,0.00745685,0.00426106,-0.01384844
1704701992830844,0.00000000,0.01915361,9.95987892,0.00639159,0.00319579,-0.01597897
1704701992832808,0.00000000,0.01915361,9.95987892,-0.00213053,0.00213053,-0.01810949
1704701992834834,0.00478840,0.01915361,9.95987892,-0.01597897,0.00532632,-0.01171791
1704701992836985,0.00478840,0.02394202,9.95987892,-0.02343582,0.00639159,0.00532632
1704701992838829,0.00000000,0.02873042,9.96466732,-0.01065264,0.00213053,0.00639159
1704701992840799,-0.00478840,0.02873042,9.96466732,-0.00426106,-0.00319579,-0.00213053
1704701992842810,-0.00478840,0.02394202,9.96466732,0.01065264,0.00000000,-0.01704423
1704701992844853,-0.00478840,0.01915361,9.95987892,0.01917476,0.00745685,-0.01810949
1704701992846863,-0.00957681,0.01915361,9.95509052,0.02237055,0.00639159,-0.00852212
1704701992848834,-0.00957681,0.02394202,9.96466732,0.04900216,-0.00213053,0.00000000
1704701992850847,-0.00957681,0.02394202,9.97903252,0.02237055,-0.00213053,0.00852212
1704701992852863,-0.00478840,0.01915361,9.98382092,-0.00532632,0.02556635,0.00426106
1704701992854847,0.00957681,0.00478840,9.98860931,0.00852212,0.04261058,-0.00958738
1704701992856844,0.01915361,0.00000000,9.99818611,0.01171791,0.03834952,0.00852212
1704701992858813,0.03351882,0.00478840,10.00776291,-0.04367584,0.02876214,0.06072007
1704701992860811,0.03830723,-0.00957681,10.01733971,0.00426106,0.02769688,0.10865697
1704701992862878,0.03351882,-0.02873042,10.02212811,0.00532632,0.00852212,0.13954964
1704701992864859,0.01915361,-0.01436521,10.02691650,-0.04900216,-0.00745685,0.13209279
1704701992866817,0.00957681,-0.00957681,10.03170490,-0.00532632,-0.01597897,0.11185277
1704701992869012,-0.00478840,-0.01915361,10.03649330,-0.01171791,-0.05539375,0.06604639
1704701992870798,-0.04788403,-0.03830723,10.04128170,0.00852212,-0.12996227,0.03834952
1704701992872805,-0.06703765,-0.02394202,10.04128170,-0.02769688,-0.17896442,0.00639159
1704701992874815,-0.10534488,-0.01436521,10.05564690,-0.09693906,-0.23435818,-0.05539375
1704701992876832,-0.13407530,-0.03351882,10.07480049,-0.08202536,-0.29614350,-0.09374327
1704701992878854,-0.16280572,-0.03351882,10.09395409,-0.13315806,-0.38988680,-0.14700650
1704701992880796,-0.21068975,-0.02873042,10.12268448,-0.22796659,-0.44315001,-0.20240024
1704701992882851,-0.23942018,-0.02873042,10.19451046,-0.25672874,-0.46019423,-0.19174761
1704701992884897,-0.26815060,-0.02873042,10.29985619,-0.30573088,-0.52411008,-0.21944447
1704701992886870,-0.29688102,-0.02394202,10.39083576,-0.36325517,-0.52837116,-0.26098979
1704701992888813,-0.32561144,-0.01436521,10.48181534,-0.38882151,-0.53476274,-0.27909929
1704701992890788,-0.35913026,-0.01915361,10.60152531,-0.39734364,-0.59335232,-0.28122982
1704701992892846,-0.35913026,-0.01436521,10.66377449,-0.45380265,-0.60933125,-0.29081720
1704701992894853,-0.37349546,-0.00957681,10.71165848,-0.50387007,-0.70520508,-0.28655612
1704701992896835,-0.38307226,-0.01436521,10.77390766,-0.51984906,-0.75420719,-0.26098979
1704701992898815,-0.36870706,-0.01915361,10.78348446,-0.52730590,-0.76485986,-0.25992453
1704701992900860,-0.35913026,-0.01436521,10.78348446,-0.54967648,-0.77657777,-0.24501082
1704701992902945,-0.35434186,0.00478840,10.81700325,-0.56565541,-0.80107886,-0.21837921
1704701992904845,-0.35434186,-0.00478840,10.82179165,-0.57950383,-0.77231669,-0.20772657
1704701992906883,-0.35913026,0.00957681,10.82179165,-0.57098174,-0.73503244,-0.17683390
1704701992908826,-0.35913026,0.03351882,10.81700325,-0.51452273,-0.71372718,-0.14061491
1704701992910837,-0.35913026,0.03830723,10.80742645,-0.49534798,-0.69242191,-0.11824435
1704701992912882,-0.35913026,0.06703765,10.78348446,-0.44954160,-0.59867859,-0.10120012
1704701992914807,-0.36391866,0.07661445,10.74996567,-0.38669100,-0.54861116,-0.07137272
1704701992916828,-0.36391866,0.10055647,10.70208168,-0.36325517,-0.50493532,-0.06924219
1704701992918876,-0.36391866,0.12449849,10.66377449,-0.34408042,-0.39947417,-0.05539375
1704701992920817,-0.37349546,0.12449849,10.59673691,-0.28655612,-0.29081720,-0.09161274
1704701992922807,-0.38307226,0.15801731,10.53448772,-0.22157501,-0.21837921,-0.07456851
1704701992924852,-0.38786069,0.16759412,10.49618053,-0.18535601,-0.12250541,-0.08522116
1704701992926883,-0.39743748,0.18674773,10.41956615,-0.13635385,-0.01810949,-0.06285060
1704701992928829,-0.41659111,0.21068975,10.33816338,-0.06285060,0.05965481,-0.04793690
1704701992930809,-0.42137951,0.21547815,10.27112484,-0.01704423,0.15446334,-0.03089267
1704701992932814,-0.42137951,0.23942018,10.17535686,0.02024002,0.24181503,-0.03195793
1704701992934847,-0.43574470,0.24420857,10.08437729,0.07456851,0.34621096,-0.02130529
1704701992936849,-0.43574470,0.25857377,10.00776291,0.12889700,0.39095205,0.02556635
1704701992938834,-0.45010993,0.26815060,9.90241814,0.18216021,0.46765110,0.00958738
1704701992940780,-0.45489833,0.25378537,9.80186176,0.21305288,0.58802599,0.01704423
1704701992942809,-0.45489833,0.27293900,9.70609379,0.25566345,0.62211442,0.03089267
1704701992944824,-0.45968673,0.28730419,9.59596062,0.31212249,0.68496501,0.02982740
1704701992946815,-0.44532153,0.25857377,9.48582745,0.35899413,0.73716301,-0.01065264
1704701992948841,-0.45010993,0.25857377,9.38048267,0.38456047,0.78403461,-0.04900216
1704701992950818,-0.43095630,0.27293900,9.27034855,0.39308259,0.80320936,-0.02024002
1704701992952873,-0.40701428,0.23942018,9.09796619,0.44315001,0.82877570,-0.05432849
1704701992954870,-0.40222588,0.22505496,9.04529381,0.46871635,0.87245154,-0.07030746
1704701992957032,-0.37349546,0.22984336,8.92558384,0.48895636,0.85647261,-0.07030746
1704701992958829,-0.33518824,0.20111294,8.77714348,0.47617319,0.86712527,-0.03621899
1704701992960834,-0.32561144,0.18195933,8.73404789,0.47830373,0.86073369,-0.03621899
1704701992962823,-0.29688102,0.16280572,8.60954952,0.52411008,0.86819053,-0.05432849
1704701992964842,-0.26815060,0.15801731,8.49462795,0.53369749,0.88203895,-0.04687164
1704701992966823,-0.23463176,0.12928689,8.42759037,0.50387007,0.83410203,-0.01810949
1704701992968856,-0.20590134,0.11013328,8.33182144,0.51026165,0.82984102,-0.02556635
1704701992970798,-0.17717093,0.08140286,8.21689987,0.52517539,0.80960095,-0.04048005
1704701992972837,-0.14365210,0.06224924,8.14986229,0.51239222,0.80001360,-0.03408846
1704701992974859,-0.10534488,0.05267244,8.06845951,0.46339002,0.77551252,-0.02769688
1704701992976837,-0.07661445,0.02394202,7.97269154,0.45806372,0.72437984,-0.00852212
1704701992978842,-0.04788403,-0.00957681,7.91523075,0.47191215,0.71372718,-0.01810949
1704701992980818,-0.01915361,-0.00478840,7.84819317,0.42930156,0.68070400,-0.03302320
1704701992982799,0.01915361,-0.02394202,7.76679039,0.41119206,0.61678809,-0.01065264
1704701992984857,0.04788403,-0.06224924,7.73327160,0.40586576,0.56032908,-0.01384844
1704701992986865,0.09097967,-0.06703765,7.71890640,0.34408042,0.44101948,-0.05006743
1704701992988825,0.22984336,-0.11492168,7.97269154,0.23648870,0.04580637,-0.06178534
1704701992990807,0.41180268,-0.23463176,8.56645393,0.11930962,-0.36005938,-0.08096009
1704701992992909,0.56503159,-0.33997664,9.14585018,0.05965481,-0.56885123,-0.09587380
1704701992994948,0.67516488,-0.43095630,9.67736340,0.05432849,-0.56459016,-0.08415589
1704701992996853,0.75656772,-0.56981999,10.53448772,-0.05858954,-0.65087658,-0.00532632
1704701992998829,0.76135612,-0.59855044,10.80263805,-0.10120012,-0.62317967,0.05326322
1704701993000898,0.75177932,-0.64164603,11.19528675,-0.14487596,-0.43036684,0.08841695
1704701993002843,0.72304893,-0.66558808,11.44907284,0.00213053,-0.19281286,0.07030746
1704701993004832,0.67516488,-0.66079968,11.65976238,0.03302320,-0.15552860,0.08309063
1704701993006823,0.62728083,-0.67037648,11.82256794,-0.04261058,-0.06391586,0.03941479
1704701993008846,0.55545479,-0.67037648,11.94227791,-0.12037488,0.05326322,0.02024002
1704701993010837,0.47405192,-0.66079968,11.99973869,0.01171791,0.07669904,-0.00852212
1704701993012826,0.41659111,-0.63685763,11.95664310,0.10439591,0.08096009,0.01171791
1704701993014825,0.34955344,-0.59855044,11.89918232,0.00532632,0.12463594,-0.03195793
1704701993016819,0.28730419,-0.57939678,11.85129833,-0.08202536,0.13209279,-0.08096009
1704701993018850,0.23942018,-0.56024319,11.75074196,-0.03408846,0.09480853,-0.07776430
1704701993020797,0.20111294,-0.51714754,11.64060879,0.03515373,0.03834952,-0.06711166
1704701993022823,0.16759412,-0.47405192,11.52089882,-0.01065264,-0.00958738,-0.05752428
1704701993024831,0.13407530,-0.43574470,11.36288166,-0.03834952,-0.00213053,-0.04580637
1704701993026829,0.10534488,-0.40701428,11.22401714,-0.02663161,0.05219796,-0.01810949
1704701993028846,0.09576806,-0.37349546,11.08036518,-0.02024002,0.06072007,-0.03834952
1704701993030810,0.08140286,-0.33518824,10.89840603,-0.07030746,-0.06711166,-0.02663161
1704701993032986,0.06224924,-0.31603462,10.75954247,-0.11078750,-0.09587380,-0.02024002
1704701993034825,0.04309563,-0.28251579,10.52491093,-0.11291803,0.05219796,-0.01491370
1704701993036836,0.03351882,-0.26815060,10.43393135,-0.13954964,0.06391586,-0.04261058
1704701993038957,0.03830723,-0.25378537,10.27591324,-0.19068234,0.00532632,-0.04048005
1704701993040819,0.01436521,-0.22984336,10.05564690,-0.20879182,-0.02450108,-0.03515373
1704701993042795,0.00000000,-0.22505496,9.97903252,-0.20879182,-0.00852212,-0.03408846
1704701993044855,0.00478840,-0.21547815,9.84495735,-0.24181503,0.02982740,-0.03302320
1704701993046831,0.00478840,-0.19632454,9.69172859,-0.31105721,0.04474111,-0.02450108
1704701993048864,-0.00957681,-0.19153613,9.52892303,-0.32597092,0.03089267,-0.02343582
1704701993050830,-0.00957681,-0.18674773,9.40442467,-0.29294771,0.01384844,-0.02450108
1704701993052837,-0.00957681,-0.16759412,9.29429054,-0.32064459,0.02556635,-0.03089267
1704701993054945,-0.01436521,-0.15801731,9.16500378,-0.36645097,0.03834952,-0.01171791
1704701993056830,-0.00957681,-0.15801731,9.04050541,-0.37497309,0.04687164,-0.00639159
1704701993058847,-0.01436521,-0.14365210,8.91600704,-0.35473305,0.07776430,-0.02450108
1704701993060831,-0.01915361,-0.13407530,8.80108547,-0.34727621,0.07350325,-0.02024002
1704701993062932,-0.00957681,-0.13407530,8.72447109,-0.37390780,0.02876214,-0.01171791
1704701993064822,-0.00478840,-0.11492168,8.67658710,-0.37710360,-0.01491370,-0.01171791
1704701993066834,0.03351882,-0.07661445,8.71010590,-0.27696875,-0.08415589,-0.00319579
1704701993068859,0.10534488,0.00957681,8.94952583,-0.14594123,-0.19494340,0.00745685
1704701993070811,0.16280572,0.10055647,9.28950214,-0.06604639,-0.30573088,0.01917476
1704701993072963,0.19153613,0.16280572,9.62469101,-0.04367584,-0.34621096,0.02024002
1704701993074824,0.20590134,0.19632454,9.96466732,-0.04580637,-0.29933929,0.01917476
1704701993076870,0.20111294,0.22505496,10.24239445,-0.06285060,-0.22050974,0.00106526
1704701993078835,0.19632454,0.23463176,10.44350815,-0.11930962,-0.10865697,-0.03089267
1704701993080870,0.18195933,0.22505496,10.62067890,-0.15552860,-0.04154531,-0.02343582
1704701993082892,0.14844051,0.22984336,10.71644688,-0.19281286,0.04261058,-0.01065264
1704701993084840,0.10534488,0.21068975,10.76911926,-0.19494340,0.15126754,-0.01171791
1704701993086887,0.09097967,0.19632454,10.77869606,-0.20133498,0.18642128,0.00639159
1704701993088869,0.05746084,0.18674773,10.76911926,-0.22157501,0.23435818,0.02982740
1704701993090794,0.03351882,0.17717093,10.71644688,-0.22796659,0.23968449,0.04900216
1704701993092822,0.00478840,0.15322891,10.64940929,-0.24181503,0.27803403,0.05326322
1704701993094905,-0.01436521,0.14844051,10.56800652,-0.18429075,0.28336033,0.06498113
1704701993096867,-0.01915361,0.14365210,10.45308495,-0.13102752,0.22370553,0.07989483
1704701993098836,-0.03351882,0.13407530,10.34295177,-0.13315806,0.23435818,0.07563377
1704701993100856,-0.03830723,0.12449849,10.24239445,-0.10546118,0.25459820,0.04367584
1704701993102843,-0.02873042,0.12449849,10.11789608,-0.03621899,0.21944447,0.02876214
1704701993104831,-0.00957681,0.11971009,10.05564690,0.00958738,0.12250541,0.04154531
1704701993106855,0.02394202,0.10055647,10.06043530,-0.00106526,0.07882957,0.01065264
1704701993108789,0.07661445,0.09097967,10.07001209,0.03834952,0.02663161,-0.00106526
1704701993110819,0.14844051,0.07182605,10.13226128,0.09906960,-0.06604639,-0.02556635
1704701993112992,0.20590134,0.04788403,10.20887566,0.09800433,-0.10865697,-0.03089267
1704701993114813,0.25378537,0.03351882,10.23760605,0.09374327,-0.09374327,-0.03515373
1704701993116930,0.28730419,0.00957681,10.26154804,0.11824435,-0.07989483,-0.01597897
1704701993118848,0.31124622,-0.00478840,10.26633644,0.16405073,-0.04261058,0.00106526
1704701993120891,0.33039984,-0.00957681,10.21845245,0.15339808,-0.00426106,0.00639159
1704701993122863,0.32561144,-0.02394202,10.15620327,0.17044231,0.05432849,-0.01171791
1704701993124804,0.32082301,-0.03830723,10.10353088,0.20026971,0.06604639,-0.00106526
1704701993126872,0.32082301,-0.04309563,10.01733971,0.23222765,0.07350325,-0.01384844
1704701993128873,0.31124622,-0.05267244,9.95030212,0.21198763,0.06072007,-0.01704423
1704701993130811,0.31124622,-0.07661445,9.93593693,0.20879182,0.03195793,-0.04367584
1704701993133024,0.32082301,-0.10055647,9.90241814,0.22796659,-0.00852212,-0.04261058
1704701993134850,0.33997664,-0.14365210,9.94072533,0.22264026,-0.07563377,-0.05432849
1704701993136894,0.34476504,-0.15801731,9.97903252,0.21092236,-0.09906960,-0.05113269
1704701993138854,0.34955344,-0.19153613,10.01255131,0.19600865,-0.12889700,-0.05539375
1704701993140792,0.35434186,-0.22026655,10.03170490,0.21092236,-0.14487596,-0.05006743
1704701993142832,0.34476504,-0.24420857,10.07958889,0.21518342,-0.13528858,-0.04474111
1704701993144890,0.33997664,-0.25857377,10.07480049,0.20985709,-0.13209279,-0.03941479
1704701993146850,0.32561144,-0.27772740,10.04128170,0.21092236,-0.11930962,-0.03834952
1704701993148850,0.29688102,-0.28730419,10.03649330,0.21411815,-0.09906960,-0.02556635
1704701993150849,0.27772740,-0.28730419,9.97903252,0.22370553,-0.10013486,-0.02982740
1704701993153013,0.26336220,-0.28251579,9.91678333,0.21518342,-0.09374327,-0.02982740
1704701993154840,0.24420857,-0.28730419,9.90720654,0.21092236,-0.08735169,-0.03089267
1704701993156974,0.22026655,-0.29209262,9.87847614,0.20772657,-0.09374327,-0.03408846
1704701993158868,0.20590134,-0.28251579,9.84974575,0.19920444,-0.12996227,-0.02556635
1704701993160917,0.19153613,-0.29209262,9.89284134,0.17896442,-0.15872440,-0.03728426
1704701993162826,0.16759412,-0.29209262,9.93114853,0.16937704,-0.16298546,-0.03408846
1704701993164857,0.14844051,-0.27772740,9.93593693,0.16618125,-0.17150757,-0.03302320
1704701993166829,0.11971009,-0.27293900,9.99339771,0.17257284,-0.17896442,-0.02450108
1704701993168867,0.08619126,-0.26815060,10.03170490,0.16724652,-0.18748654,-0.02343582
1704701993170865,0.06224924,-0.25378537,10.01733971,0.15126754,-0.18642128,-0.02130529
1704701993172824,0.03351882,-0.24899697,10.03170490,0.13635385,-0.15020229,-0.02237055
1704701993174824,0.00478840,-0.24420857,10.03170490,0.12889700,-0.14913702,-0.01278317
1704701993176854,-0.01915361,-0.22505496,9.98382092,0.10865697,-0.14913702,-0.01384844
1704701993178887,-0.04309563,-0.22505496,9.97903252,0.07137272,-0.15659387,-0.02024002
1704701993180796,-0.07661445,-0.22505496,9.99818611,0.04580637,-0.15339808,-0.02450108
1704701993182829,-0.10055647,-0.19632454,9.98860931,0.02130529,-0.15126754,-0.02343582
1704701993184825,-0.11971009,-0.19153613,10.02212811,-0.00426106,-0.14487596,-0.02769688
1704701993186879,-0.14844051,-0.18195933,10.09395409,-0.03408846,-0.14168017,-0.02663161
1704701993188839,-0.17717093,-0.13886370,10.12268448,-0.06924219,-0.12996227,-0.01810949
1704701993190791,-0.19153613,-0.13407530,10.13704967,-0.10333065,-0.10652644,-0.01597897
1704701993192874,-0.20590134,-0.12449849,10.15141487,-0.12250541,-0.10333065,-0.01917476
1704701993194871,-0.21547815,-0.09097967,10.12268448,-0.15020229,-0.09906960,-0.02343582
1704701993196834,-0.21068975,-0.08619126,10.08437729,-0.18855180,-0.09587380,-0.02024002
1704701993198847,-0.21068975,-0.08140286,10.06043530,-0.21198763,-0.10226539,-0.01597897
1704701993200844,-0.20590134,-0.04309563,10.03649330,-0.21837921,-0.10013486,-0.01597897
1704701993202900,-0.18674773,-0.01915361,10.02691650,-0.22050974,-0.08309063,-0.02450108
1704701993204832,-0.17238252,0.00957681,10.05564690,-0.22690132,-0.07350325,-0.02343582
1704701993206859,-0.15801731,0.06224924,10.09395409,-0.20666130,-0.06711166,-0.02343582
1704701993208788,-0.13407530,0.10534488,10.12268448,-0.17044231,-0.06178534,-0.02556635
1704701993210924,-0.11013328,0.14365210,10.15141487,-0.15765914,-0.04261058,-0.02237055
1704701993212854,-0.08619126,0.18674773,10.18014526,-0.18002969,-0.03089267,-0.02024002
1704701993214959,-0.05746084,0.21547815,10.18493366,-0.18642128,-0.02130529,-0.01278317
1704701993216815,-0.02873042,0.22984336,10.17056847,-0.17896442,-0.00426106,-0.00426106
1704701993219022,-0.00478840,0.24899697,10.16578007,-0.18642128,0.00000000,-0.00745685
1704701993220829,0.02394202,0.25857377,10.16578007,-0.20772657,0.00639159,-0.00213053
1704701993222837,0.05267244,0.27293900,10.14662647,-0.20346551,0.00958738,-0.01171791
1704701993224858,0.08140286,0.27293900,10.14662647,-0.18748654,0.02024002,-0.01597897
1704701993226855,0.10534488,0.27293900,10.15620327,-0.18642128,0.02769688,-0.02343582
1704701993228900,0.13886370,0.28251579,10.14662647,-0.18642128,0.01704423,-0.02876214
1704701993230812,0.16759412,0.27772740,10.15620327,-0.19281286,0.02556635,-0.03195793
1704701993232798,0.18195933,0.26336220,10.17056847,-0.19281286,0.04261058,-0.03408846
1704701993234828,0.20590134,0.26815060,10.15620327,-0.19813919,0.04261058,-0.03515373
1704701993236855,0.22984336,0.25857377,10.14662647,-0.20559603,0.04687164,-0.03728426
1704701993238865,0.23942018,0.23942018,10.16099167,-0.19600865,0.05539375,-0.04367584
1704701993240806,0.24899697,0.23463176,10.14183807,-0.17576863,0.06178534,-0.04048005
1704701993242807,0.26336220,0.22505496,10.12268448,-0.18216021,0.07776430,-0.02663161
1704701993244890,0.26336220,0.21068975,10.12268448,-0.17363811,0.09374327,-0.00745685
1704701993246870,0.26815060,0.19153613,10.10831928,-0.13528858,0.09374327,-0.00213053
1704701993248828,0.27772740,0.17717093,10.08437729,-0.11824435,0.09587380,-0.00426106
1704701993250843,0.27293900,0.16280572,10.08437729,-0.12357067,0.10120012,0.00639159
1704701993252750,0.27772740,0.13886370,10.07480049,-0.10120012,0.09906960,0.00639159
1704701993254942,0.28730419,0.11492168,10.04607010,-0.05645901,0.08096009,0.00319579
1704701993256844,0.28251579,0.09097967,10.03649330,-0.05539375,0.08202536,0.00213053
1704701993259108,0.27772740,0.06703765,10.03170490,-0.05432849,0.08628642,-0.00639159
1704701993260852,0.28251579,0.04309563,10.00776291,0.00000000,0.06604639,0.01065264
1704701993262839,0.27772740,0.01436521,9.99818611,0.03621899,0.05752428,0.01491370
1704701993264851,0.26336220,-0.00957681,9.99818611,0.04261058,0.07563377,0.01171791
1704701993266825,0.25857377,-0.02873042,9.97424412,0.07243798,0.07137272,0.01065264
1704701993268897,0.24899697,-0.05267244,9.96466732,0.12250541,0.04154531,0.01704423
1704701993270817,0.22984336,-0.07182605,9.96466732,0.14487596,0.05326322,0.02024002
1704701993272839,0.22505496,-0.08140286,9.92636013,0.16511598,0.06604639,0.01597897
1704701993274802,0.21068975,-0.10055647,9.90720654,0.22050974,0.05006743,0.01278317
1704701993276874,0.19632454,-0.11492168,9.90720654,0.24394555,0.04367584,0.01065264
1704701993278832,0.18674773,-0.12928689,9.86411095,0.25459820,0.04793690,-0.00319579
1704701993280798,0.17717093,-0.14365210,9.85453415,0.28442562,0.02769688,-0.01171791
1704701993282818,0.15801731,-0.15801731,9.87368774,0.30573088,0.01491370,-0.01171791
1704701993284821,0.14844051,-0.17238252,9.84974575,0.31638354,0.01384844,-0.01491370
1704701993286878,0.13886370,-0.19632454,9.86411095,0.33023196,-0.01065264,-0.02663161
1704701993288851,0.12449849,-0.21547815,9.89762974,0.34301513,-0.04580637,-0.03089267
1704701993290770,0.11971009,-0.22984336,9.88805294,0.33555830,-0.06072007,-0.03834952
1704701993292823,0.11492168,-0.25378537,9.91199493,0.33449304,-0.09267800,-0.03941479
1704701993294910,0.09576806,-0.27293900,9.94551373,0.33981934,-0.13102752,-0.04261058
1704701993296872,0.09097967,-0.28730419,9.92636013,0.33555830,-0.14913702,-0.03834952
1704701993298837,0.07661445,-0.30166942,9.94551373,0.32810146,-0.15765914,-0.03515373
1704701993300827,0.05746084,-0.32082301,9.97424412,0.33342776,-0.17470337,-0.02343582
1704701993302867,0.04309563,-0.33518824,9.97424412,0.31851408,-0.18216021,-0.02130529
1704701993304811,0.01436521,-0.35913026,10.03170490,0.26951191,-0.15126754,-0.01171791
1704701993306851,-0.02873042,-0.38786069,10.10353088,0.22583605,-0.14274544,-0.01171791
1704701993308831,-0.05267244,-0.40701428,10.13704967,0.20772657,-0.13422331,-0.00639159
1704701993310853,-0.08619126,-0.42616791,10.19451046,0.18748654,-0.10652644,-0.01065264
1704701993312959,-0.12449849,-0.44053310,10.24239445,0.16724652,-0.09800433,-0.01171791
1704701993314832,-0.14365210,-0.44053310,10.23760605,0.15339808,-0.10546118,-0.00852212
1704701993316818,-0.16759412,-0.44532153,10.24239445,0.14381070,-0.10759171,0.00000000
1704701993318889,-0.18195933,-0.44053310,10.22324085,0.14807175,-0.08948221,-0.01278317
1704701993320833,-0.18195933,-0.43095630,10.17535686,0.14061491,-0.10972223,-0.00958738
1704701993322798,-0.19153613,-0.41659111,10.17056847,0.13422331,-0.12676647,-0.00852212
1704701993324843,-0.20111294,-0.41180268,10.16099167,0.11078750,-0.11824435,0.00319579
1704701993326861,-0.20111294,-0.38786069,10.12268448,0.08202536,-0.11611383,0.00426106
1704701993328829,-0.20111294,-0.36870706,10.14183807,0.04793690,-0.11611383,0.01278317
1704701993330822,-0.20111294,-0.34955344,10.14662647,0.01917476,-0.12037488,0.01384844
1704701993332830,-0.19632454,-0.32561144,10.12747288,-0.01810949,-0.10333065,0.01065264
1704701993334821,-0.20111294,-0.30645782,10.14183807,-0.05219796,-0.10226539,0.00745685
1704701993336915,-0.19632454,-0.28251579,10.12268448,-0.07137272,-0.09161274,0.01597897
1704701993338962,-0.19153613,-0.25857377,10.09874249,-0.07989483,-0.08415589,0.01384844
1704701993340810,-0.19153613,-0.23942018,10.10831928,-0.10759171,-0.06924219,-0.00639159
1704701993342820,-0.18195933,-0.20590134,10.08437729,-0.14807175,-0.04580637,-0.01065264
1704701993344863,-0.17717093,-0.18195933,10.06043530,-0.15020229,-0.01917476,-0.00745685
1704701993346885,-0.17717093,-0.16280572,10.07001209,-0.14487596,-0.00426106,-0.00319579
1704701993348813,-0.16759412,-0.12928689,10.04607010,-0.17150757,0.01704423,-0.02130529
1704701993350843,-0.15801731,-0.11492168,10.02212811,-0.21944447,0.04154531,-0.02024002
1704701993352853,-0.15322891,-0.09576806,10.02212811,-0.23861924,0.05006743,-0.02450108
1704701993354857,-0.13407530,-0.06703765,9.97903252,-0.24714135,0.05858954,-0.03195793
1704701993356853,-0.11971009,-0.06224924,9.94072533,-0.26951191,0.06072007,-0.03408846
1704701993358818,-0.10534488,-0.04309563,9.94072533,-0.29827404,0.06711166,-0.02982740
1704701993360854,-0.08140286,-0.02394202,9.90720654,-0.31531829,0.08415589,-0.03728426
1704701993362834,-0.06224924,-0.02394202,9.88805294,-0.32384038,0.10333065,-0.05326322
1704701993364851,-0.04788403,0.00000000,9.90241814,-0.34088463,0.12144014,-0.05858954
1704701993366797,-0.02873042,0.01915361,9.88805294,-0.34940675,0.12996227,-0.05006743
1704701993368861,-0.01436521,0.02394202,9.87847614,-0.34194988,0.14061491,-0.04580637
1704701993370849,0.00957681,0.05267244,9.91199493,-0.33236250,0.15126754,-0.04367584
1704701993372822,0.03830723,0.08140286,9.91678333,-0.31957933,0.14913702,-0.03195793
1704701993374836,0.06224924,0.10534488,9.94551373,-0.28442562,0.13102752,-0.02982740
1704701993376875,0.09097967,0.14844051,10.02212811,-0.23542345,0.11291803,-0.02876214
1704701993378775,0.12928689,0.18195933,10.07480049,-0.19281286,0.09906960,-0.02450108
1704701993380809,0.16280572,0.20590134,10.12268448,-0.17896442,0.08735169,-0.01704423
1704701993382817,0.19153613,0.23463176,10.18014526,-0.17576863,0.09054748,-0.00426106
1704701993384868,0.22026655,0.24420857,10.18972206,-0.17683390,0.10013486,0.00639159
1704701993386838,0.23463176,0.24899697,10.18493366,-0.18855180,0.10546118,0.01278317
1704701993388836,0.24899697,0.25857377,10.18972206,-0.21518342,0.11185277,0.01597897
1704701993390790,0.25378537,0.25378537,10.15141487,-0.21624868,0.12570120,0.00639159
1704701993392830,0.26336220,0.24899697,10.11789608,-0.19600865,0.13102752,0.00958738
1704701993394893,0.27772740,0.24899697,10.12747288,-0.17896442,0.12676647,0.00426106
1704701993396828,0.27772740,0.24420857,10.11789608,-0.15659387,0.11078750,0.01278317
1704701993398823,0.28251579,0.24899697,10.12268448,-0.11185277,0.09906960,0.02130529
1704701993400827,0.29688102,0.24899697,10.15141487,-0.07989483,0.09480853,0.02024002
1704701993402849,0.30166942,0.23463176,10.13704967,-0.06285060,0.09480853,0.02130529
1704701993404839,0.30166942,0.22984336,10.13704967,-0.04793690,0.07776430,0.02024002
1704701993406846,0.31124622,0.22026655,10.14662647,-0.02876214,0.07989483,0.02343582
1704701993408841,0.31124622,0.20590134,10.11310768,0.00213053,0.08522116,0.01917476
1704701993410842,0.30645782,0.19632454,10.08916569,0.01704423,0.08309063,0.02982740
1704701993412834,0.31124622,0.17717093,10.07001209,0.02237055,0.08202536,0.02450108
1704701993414833,0.29688102,0.15801731,10.02691650,0.03941479,0.08841695,0.03621899
1704701993416791,0.28730419,0.14365210,10.02691650,0.06711166,0.07669904,0.04261058
1704701993418912,0.28730419,0.11492168,10.01733971,0.08415589,0.05539375,0.04474111
1704701993420811,0.26815060,0.10055647,9.99339771,0.08415589,0.06391586,0.04687164
1704701993423008,0.25378537,0.08140286,10.00776291,0.11930962,0.07030746,0.05006743
1704701993424824,0.24899697,0.05267244,9.99818611,0.15126754,0.04580637,0.04474111
1704701993426885,0.22984336,0.03830723,9.98382092,0.16618125,0.02130529,0.04154531
1704701993428863,0.21068975,0.02394202,9.99339771,0.19494340,0.00106526,0.03621899
1704701993430796,0.20590134,0.00478840,9.96466732,0.22903186,-0.01171791,0.02982740
1704701993432809,0.20111294,0.00000000,9.95030212,0.24714135,-0.01491370,0.02024002
1704701993434848,0.18195933,-0.00957681,9.93593693,0.28442562,-0.04580637,0.02556635
1704701993436837,0.18195933,-0.01915361,9.89762974,0.31851408,-0.08841695,0.00958738
1704701993438857,0.16280572,-0.02873042,9.89284134,0.34834146,-0.11185277,-0.00532632
1704701993440812,0.15801731,-0.04309563,9.88326454,0.37177730,-0.12250541,-0.00745685
1704701993442802,0.15322891,-0.04788403,9.86411095,0.37816888,-0.15339808,0.00852212
1704701993444897,0.13886370,-0.06224924,9.88805294,0.38242993,-0.18748654,-0.00532632
1704701993446846,0.12928689,-0.08140286,9.89284134,0.40266997,-0.20559603,-0.01171791
1704701993448796,0.11492168,-0.09097967,9.90241814,0.41438785,-0.22157501,-0.00639159
1704701993450803,0.09576806,-0.11492168,9.94072533,0.40266997,-0.23648870,0.01065264
1704701993452884,0.08619126,-0.12928689,9.95509052,0.38882151,-0.23648870,0.01171791
1704701993454802,0.05267244,-0.16280572,10.02212811,0.36218992,-0.21518342,0.02343582
1704701993456834,0.02394202,-0.20590134,10.09874249,0.33555830,-0.20666130,0.02450108
1704701993458847,-0.00478840,-0.22984336,10.16099167,0.30892667,-0.19494340,0.02024002
1704701993460965,-0.03830723,-0.26336220,10.25197124,0.29401299,-0.20026971,0.01384844
1704701993462893,-0.06703765,-0.30166942,10.30943298,0.29081720,-0.19387813,0.01065264
1704701993464836,-0.08140286,-0.31124622,10.33337498,0.27803403,-0.19281286,-0.00426106
1704701993466839,-0.10055647,-0.33518824,10.36689377,0.28549087,-0.21305288,0.00213053
1704701993468881,-0.10534488,-0.34476504,10.36210537,0.28229508,-0.24501082,0.00213053
1704701993470824,-0.11013328,-0.34476504,10.34774017,0.29081720,-0.27270770,-0.00852212
1704701993472838,-0.11492168,-0.34955344,10.34774017,0.28975192,-0.26738137,-0.00745685
1704701993474798,-0.11971009,-0.35434186,10.30943298,0.24927188,-0.23648870,0.00958738
1704701993476862,-0.11971009,-0.35434186,10.30464458,0.21731395,-0.21624868,0.02982740
1704701993478844,-0.14365210,-0.38307226,10.32858658,0.17576863,-0.17789917,0.02769688
1704701993480813,-0.16280572,-0.37828386,10.31422138,0.15126754,-0.12570120,0.01810949
1704701993482827,-0.16759412,-0.38307226,10.31900978,0.12357067,-0.09267800,0.01491370
1704701993484868,-0.18674773,-0.39743748,10.32858658,0.07882957,-0.09480853,0.02024002
1704701993486844,-0.19153613,-0.38786069,10.29506683,0.00745685,-0.09054748,-0.01065264
1704701993488843,-0.19153613,-0.39743748,10.29027843,-0.01810949,-0.08841695,-0.02663161
1704701993490814,-0.19632454,-0.40222588,10.27591324,-0.05752428,-0.09161274,-0.02982740
1704701993492792,-0.18674773,-0.38307226,10.22324085,-0.09693906,-0.09587380,-0.02343582
1704701993494918,-0.17717093,-0.39743748,10.18014526,-0.16405073,-0.07563377,-0.02556635
1704701993496899,-0.16280572,-0.37349546,10.12747288,-0.20453078,-0.05645901,-0.04261058
1704701993498785,-0.14844051,-0.38307226,10.07480049,-0.24927188,-0.04580637,-0.04474111
1704701993500840,-0.14365210,-0.38307226,10.04607010,-0.28229508,-0.05006743,-0.04793690
1704701993502846,-0.13886370,-0.36870706,10.02691650,-0.31105721,-0.04687164,-0.05219796
1704701993504887,-0.12449849,-0.36870706,9.97903252,-0.36005938,-0.01171791,-0.05432849
1704701993506832,-0.11492168,-0.34955344,9.92636013,-0.40480047,0.02769688,-0.06178534
1704701993508829,-0.11013328,-0.33518824,9.90720654,-0.40799627,0.03302320,-0.05752428
1704701993510850,-0.10534488,-0.33997664,9.87368774,-0.40799627,0.03621899,-0.04154531
1704701993512839,-0.10534488,-0.32561144,9.84016895,-0.44315001,0.07137272,-0.04474111
1704701993514859,-0.10055647,-0.30166942,9.83059216,-0.46445531,0.09693906,-0.03728426
1704701993516848,-0.10534488,-0.29688102,9.80665016,-0.46871635,0.09906960,-0.03195793
1704701993518855,-0.10055647,-0.26815060,9.77313137,-0.45593318,0.12676647,-0.03515373
1704701993520844,-0.09576806,-0.25378537,9.76834297,-0.46871635,0.15765914,-0.02982740
1704701993522814,-0.10055647,-0.23463176,9.75397778,-0.49108690,0.16298546,-0.01597897
1704701993524918,-0.09576806,-0.21068975,9.73482418,-0.50173956,0.18855180,-0.01810949
1704701993526966,-0.09576806,-0.18674773,9.73482418,-0.47191215,0.23009712,-0.00426106
1704701993528853,-0.09576806,-0.15801731,9.70130539,-0.45699844,0.22370553,0.00532632
1704701993530796,-0.09097967,-0.14844051,9.70130539,-0.47084689,0.23755397,0.01704423
1704701993532820,-0.09097967,-0.13407530,9.73003578,-0.44634581,0.26205504,0.02024002
1704701993534880,-0.09097967,-0.11013328,9.71567059,-0.41119206,0.24927188,0.03621899
1704701993536809,-0.08140286,-0.09097967,9.71567059,-0.42077947,0.25672874,0.03621899
1704701993538848,-0.08140286,-0.06703765,9.73961258,-0.38882151,0.28122982,0.04580637
1704701993540817,-0.07182605,-0.05746084,9.73482418,-0.33981934,0.26205504,0.05858954
1704701993542889,-0.05746084,-0.04309563,9.74440098,-0.32597092,0.26205504,0.05858954
1704701993544856,-0.06224924,-0.02394202,9.78270817,-0.31744879,0.28016454,0.05113269
1704701993546833,-0.04788403,-0.00478840,9.79707336,-0.25033715,0.25140241,0.05113269
1704701993548844,-0.02873042,0.02873042,9.86411095,-0.17470337,0.23116238,0.04367584
1704701993550827,0.00000000,0.05746084,9.95987892,-0.11611383,0.21518342,0.02556635
1704701993553054,0.04309563,0.09576806,10.04128170,-0.06072007,0.15872440,0.01384844
1704701993554844,0.09097967,0.13886370,10.19451046,-0.00213053,0.14381070,0.01491370
1704701993556853,0.10534488,0.14844051,10.23281765,0.01384844,0.16085494,0.01065264
1704701993558836,0.13407530,0.17717093,10.29506683,0.03089267,0.13528858,0.00639159
1704701993560827,0.16280572,0.18674773,10.35252857,0.02237055,0.10546118,0.00639159
1704701993562885,0.17238252,0.18674773,10.39562416,0.04048005,0.13315806,0.00319579
1704701993564855,0.18674773,0.20111294,10.43393135,0.05219796,0.12783173,-0.00958738
1704701993566836,0.20111294,0.19632454,10.45308495,0.06924219,0.10865697,-0.02024002
1704701993568905,0.20111294,0.19153613,10.46266174,0.07030746,0.11398330,-0.00745685
1704701993570972,0.21068975,0.19632454,10.47702694,0.08841695,0.10546118,-0.00958738
1704701993572853,0.20590134,0.17717093,10.47223854,0.11504856,0.10333065,0.00639159
1704701993574800,0.21068975,0.18195933,10.47702694,0.12250541,0.09800433,0.00745685
1704701993576888,0.20590134,0.15801731,10.46745014,0.16192019,0.06817693,0.01704423
1704701993578866,0.20111294,0.15322891,10.45787334,0.17683390,0.05219796,0.00745685
1704701993580835,0.20111294,0.16280572,10.45308495,0.18535601,0.05965481,0.00213053
1704701993582834,0.20111294,0.14365210,10.45308495,0.20346551,0.03408846,-0.00745685
1704701993584898,0.18674773,0.13407530,10.42435455,0.23648870,0.00106526,-0.00958738
1704701993586865,0.19153613,0.13886370,10.41477776,0.25140241,0.00745685,-0.02024002
1704701993588831,0.18195933,0.11492168,10.40520096,0.25992453,-0.00852212,-0.01597897
1704701993590826,0.17717093,0.12449849,10.38125896,0.26844662,-0.03941479,-0.01491370
1704701993592842,0.17717093,0.11492168,10.37647057,0.28016454,-0.04900216,-0.01491370
1704701993594832,0.16759412,0.09097967,10.35731697,0.29507825,-0.06924219,-0.02556635
1704701993596850,0.16280572,0.11013328,10.34295177,0.29933929,-0.10226539,-0.01597897
1704701993598850,0.15801731,0.08140286,10.34295177,0.28549087,-0.11185277,-0.02024002
1704701993600828,0.15322891,0.07182605,10.32379818,0.28549087,-0.11504856,-0.01171791
1704701993602862,0.15322891,0.07661445,10.31900978,0.30679616,-0.14061491,-0.00639159
1704701993604828,0.14844051,0.03830723,10.30943298,0.31318775,-0.14594123,-0.00639159
1704701993606825,0.13886370,0.04788403,10.29985619,0.28975192,-0.13422331,-0.00213053
1704701993608921,0.14365210,0.03830723,10.30464458,0.29614350,-0.15126754,0.00532632
1704701993610936,0.13886370,0.00478840,10.29506683,0.30040458,-0.15233281,0.00639159
1704701993612812,0.12928689,0.02394202,10.29027843,0.28975192,-0.13954964,-0.00426106
1704701993614869,0.12449849,-0.01915361,10.29506683,0.26738137,-0.15126754,-0.00852212
1704701993616825,0.12449849,-0.01915361,10.29027843,0.25992453,-0.16405073,0.00213053
1704701993618948,0.11492168,-0.01436521,10.29985619,0.24927188,-0.15978967,-0.00745685
1704701993620818,0.10534488,-0.05267244,10.29985619,0.23009712,-0.14807175,-0.01597897
1704701993622830,0.10055647,-0.04309563,10.29506683,0.21731395,-0.14381070,-0.01171791
1704701993624817,0.10055647,-0.05746084,10.31900978,0.20240024,-0.14487596,-0.00213053
1704701993626837,0.09097967,-0.09097967,10.32379818,0.17150757,-0.14381070,-0.00532632
1704701993628847,0.07661445,-0.07661445,10.31900978,0.13209279,-0.12889700,-0.01810949
1704701993630839,0.06703765,-0.10534488,10.34774017,0.10972223,-0.11398330,-0.00639159
1704701993632819,0.06224924,-0.11971009,10.32858658,0.10972223,-0.11185277,-0.00852212
1704701993634869,0.04788403,-0.11971009,10.33337498,0.07563377,-0.11398330,-0.01704423
1704701993636877,0.04309563,-0.15322891,10.35731697,0.02450108,-0.10333065,-0.02769688
1704701993638836,0.03351882,-0.14844051,10.34774017,-0.00319579,-0.08202536,-0.02556635
1704701993640845,0.02394202,-0.16759412,10.37168217,0.00852212,-0.07243798,-0.02556635
1704701993642816,0.01915361,-0.18674773,10.37168217,-0.01491370,-0.06604639,-0.03834952
1704701993644898,0.00957681,-0.17717093,10.36210537,-0.05858954,-0.05539375,-0.04900216
1704701993646828,0.00000000,-0.20111294,10.40041256,-0.08415589,-0.04687164,-0.04261058
1704701993648859,-0.00957681,-0.19632454,10.39083576,-0.08522116,-0.03302320,-0.04154531
1704701993650868,-0.01915361,-0.19632454,10.39083576,-0.08841695,-0.02556635,-0.04261058
1704701993652854,-0.02394202,-0.21068975,10.41477776,-0.10226539,-0.02024002,-0.04793690
1704701993654877,-0.02873042,-0.19153613,10.40520096,-0.11291803,-0.01065264,-0.04793690
1704701993656847,-0.03830723,-0.20111294,10.42435455,-0.12463594,0.00319579,-0.03941479
1704701993658847,-0.03830723,-0.18195933,10.42435455,-0.12783173,0.00319579,-0.03621899
1704701993660856,-0.04309563,-0.17717093,10.41956615,-0.13741912,0.00532632,-0.03515373
1704701993662843,-0.04309563,-0.18674773,10.44350815,-0.13315806,0.02343582,-0.03728426
1704701993664832,-0.04309563,-0.16280572,10.43871975,-0.13741912,0.03408846,-0.03302320
1704701993666832,-0.03830723,-0.15801731,10.43393135,-0.13422331,0.03302320,-0.02769688
1704701993668943,-0.03830723,-0.14844051,10.45308495,-0.13954964,0.03302320,-0.02982740
1704701993670825,-0.03830723,-0.12449849,10.43871975,-0.13209279,0.04687164,-0.02769688
1704701993672830,-0.03351882,-0.12928689,10.44350815,-0.14381070,0.05645901,-0.02130529
1704701993674854,-0.02873042,-0.11013328,10.45308495,-0.17363811,0.05432849,-0.02237055
1704701993676859,-0.02394202,-0.10534488,10.43871975,-0.17896442,0.05858954,-0.02130529
1704701993678874,-0.02394202,-0.11013328,10.45308495,-0.17257284,0.07137272,-0.01491370
1704701993680838,-0.01915361,-0.08619126,10.45787334,-0.17683390,0.08309063,-0.01278317
1704701993682856,-0.01915361,-0.09097967,10.45308495,-0.17789917,0.08735169,-0.00852212
1704701993684873,-0.01915361,-0.08619126,10.47702694,-0.14913702,0.09054748,-0.00639159
1704701993686868,-0.01915361,-0.06703765,10.47702694,-0.14274544,0.10546118,-0.00426106
1704701993688886,-0.00957681,-0.07661445,10.48660374,-0.13422331,0.10759171,-0.00106526
1704701993690824,-0.01436521,-0.05746084,10.49618053,-0.11930962,0.10652644,0.00106526
1704701993692824,-0.01436521,-0.04788403,10.49618053,-0.09054748,0.11824435,0.00745685
1704701993694912,-0.00957681,-0.05267244,10.52012253,-0.07243798,0.12357067,0.00639159
1704701993696828,-0.00957681,-0.02394202,10.52012253,-0.06817693,0.11291803,-0.00745685
1704701993698845,-0.00957681,-0.02873042,10.52491093,-0.05645901,0.11824435,-0.00745685
1704701993700844,-0.01436521,-0.02873042,10.54406452,-0.03408846,0.12783173,-0.00426106
1704701993702891,-0.01436521,-0.00957681,10.54406452,-0.02556635,0.12357067,-0.00745685
1704701993704860,-0.00478840,-0.02394202,10.55364132,-0.03302320,0.10652644,-0.00639159
1704701993706848,-0.00957681,-0.00957681,10.56800652,-0.02450108,0.10333065,-0.00745685
1704701993708831,-0.00478840,-0.00478840,10.56800652,-0.01810949,0.11504856,-0.00319579
1704701993710856,-0.00478840,-0.00957681,10.58237171,0.00000000,0.11078750,0.00213053
1704701993712946,-0.00957681,0.00957681,10.58716011,0.02663161,0.09906960,0.00426106
1704701993714807,0.00000000,0.00957681,10.58237171,0.03515373,0.10652644,0.00106526
1704701993716836,-0.00957681,0.00957681,10.60152531,0.03941479,0.10652644,0.00852212
1704701993718862,-0.00478840,0.02873042,10.59194851,0.06072007,0.08841695,0.00639159
1704701993720818,0.00000000,0.02394202,10.59673691,0.09161274,0.07456851,0.00000000
1704701993722854,-0.00478840,0.03351882,10.61110210,0.09587380,0.07776430,-0.00106526
1704701993724845,0.00000000,0.03830723,10.60152531,0.10120012,0.07350325,-0.00213053
1704701993726886,0.00478840,0.03351882,10.62067890,0.11504856,0.06285060,0.00319579
1704701993728901,0.00957681,0.04788403,10.62546730,0.14700650,0.05645901,0.00106526
1704701993730822,0.01915361,0.03830723,10.62546730,0.14913702,0.06391586,-0.00426106
1704701993732813,0.01436521,0.04309563,10.64462090,0.14913702,0.07137272,0.00213053
1704701993734900,0.02394202,0.05267244,10.64462090,0.16405073,0.05219796,0.00639159
1704701993736865,0.02873042,0.04309563,10.65419769,0.19068234,0.03941479,-0.00639159
1704701993738884,0.03351882,0.04788403,10.66377449,0.18855180,0.04580637,-0.01065264
1704701993740795,0.04309563,0.03830723,10.66377449,0.18322548,0.03941479,-0.00745685
1704701993742835,0.03830723,0.03351882,10.67813969,0.18642128,0.02343582,0.00319579
1704701993744943,0.04309563,0.03351882,10.67813969,0.18855180,0.02556635,0.00000000
1704701993746873,0.04309563,0.02394202,10.68292809,0.18535601,0.03728426,0.00000000
1704701993748835,0.04309563,0.01915361,10.69729328,0.18216021,0.03302320,0.00213053
1704701993750840,0.04788403,0.01915361,10.68771648,0.18642128,0.02769688,0.00639159
1704701993752960,0.04309563,0.00478840,10.69729328,0.17896442,0.02663161,0.00000000
1704701993754849,0.04788403,0.00478840,10.70208168,0.16405073,0.02130529,0.00106526
1704701993756857,0.04788403,0.00000000,10.69250488,0.15552860,0.00639159,0.00532632
1704701993758849,0.04788403,-0.00478840,10.71165848,0.15978967,0.01171791,0.00319579
1704701993760833,0.05267244,-0.00957681,10.70687008,0.15659387,0.00852212,-0.00106526
1704701993762839,0.04788403,-0.01436521,10.70208168,0.15446334,-0.00213053,-0.00106526
1704701993764849,0.05267244,-0.01436521,10.71165848,0.14700650,0.00319579,0.00639159
1704701993766841,0.05267244,-0.01915361,10.70208168,0.12996227,0.00745685,0.00532632
1704701993768871,0.05267244,-0.02394202,10.70208168,0.10333065,0.00639159,0.00319579
1704701993770791,0.06224924,-0.03351882,10.69729328,0.09054748,0.00000000,0.00213053
1704701993772819,0.05746084,-0.04309563,10.68292809,0.08628642,-0.00532632,0.00213053
1704701993774832,0.06224924,-0.04788403,10.68292809,0.07563377,-0.00426106,-0.01065264
1704701993776850,0.06224924,-0.06224924,10.67335129,0.05539375,-0.01171791,-0.00745685
1704701993778872,0.06703765,-0.07182605,10.66377449,0.03302320,-0.04154531,-0.00745685
1704701993780836,0.07182605,-0.07182605,10.65898609,0.03089267,-0.04261058,-0.00852212
1704701993782844,0.06703765,-0.09097967,10.63983250,0.02663161,-0.02982740,-0.01491370
1704701993784859,0.07182605,-0.09097967,10.63025570,0.01171791,-0.03089267,-0.01597897
1704701993786879,0.07182605,-0.09576806,10.62067890,-0.02024002,-0.04048005,-0.01704423
1704701993788865,0.06703765,-0.10534488,10.60631371,-0.02876214,-0.03408846,-0.01597897
1704701993790809,0.07661445,-0.10534488,10.59194851,-0.02769688,-0.02450108,-0.01597897
1704701993792922,0.06224924,-0.11492168,10.58237171,-0.03728426,-0.02663161,-0.01597897
1704701993794914,0.06224924,-0.11013328,10.56321812,-0.05539375,-0.03089267,-0.01171791
1704701993796861,0.06224924,-0.11492168,10.56321812,-0.04900216,-0.02769688,-0.00745685
1704701993798849,0.04788403,-0.11971009,10.55364132,-0.04048005,-0.01597897,-0.01171791
1704701993800845,0.05746084,-0.11492168,10.52969933,-0.05539375,-0.00958738,-0.01597897
1704701993802869,0.04788403,-0.11971009,10.52491093,-0.06498113,-0.01810949,-0.01065264
1704701993804847,0.03830723,-0.11492168,10.51054573,-0.06178534,-0.01704423,-0.00958738
1704701993806856,0.05267244,-0.11013328,10.49139214,-0.05113269,0.00319579,-0.01278317
1704701993808834,0.03351882,-0.11492168,10.48181534,-0.05432849,0.00852212,-0.01065264
1704701993810861,0.03351882,-0.10534488,10.45787334,-0.05432849,0.00213053,0.00000000
1704701993812858,0.03830723,-0.10055647,10.44350815,-0.05326322,0.00426106,-0.00213053
1704701993815025,0.01915361,-0.10055647,10.43871975,-0.04261058,0.02663161,-0.00745685
1704701993816828,0.02873042,-0.09097967,10.40520096,-0.04154531,0.04261058,-0.00319579
1704701993818856,0.01436521,-0.09576806,10.40520096,-0.04474111,0.02982740,0.00532632
1704701993820797,0.00478840,-0.08619126,10.40041256,-0.03834952,0.03408846,0.00426106
1704701993822847,0.01915361,-0.08619126,10.37647057,-0.02769688,0.04367584,0.00319579
1704701993824845,0.00000000,-0.09097967,10.37647057,-0.01810949,0.05432849,-0.00106526
1704701993826862,0.00478840,-0.08140286,10.36210537,-0.02343582,0.04687164,0.00000000
1704701993828883,0.00478840,-0.07661445,10.35731697,-0.02237055,0.03302320,-0.00106526
1704701993830825,-0.01436521,-0.07661445,10.36210537,0.00000000,0.03089267,-0.00532632
1704701993832827,0.00000000,-0.06703765,10.34774017,0.01384844,0.03302320,0.00000000
1704701993834850,-0.00957681,-0.06703765,10.34774017,0.00745685,0.03728426,0.00532632
1704701993836880,-0.01436521,-0.05267244,10.35252857,0.00000000,0.02982740,0.01171791
1704701993838838,0.00000000,-0.04788403,10.34295177,0.02130529,0.02237055,0.00745685
1704701993840815,-0.01915361,-0.05267244,10.35731697,0.03408846,0.02450108,0.00852212
1704701993842826,-0.00478840,-0.04309563,10.35731697,0.02450108,0.04048005,0.00000000
1704701993844908,0.00000000,-0.04309563,10.35731697,0.02237055,0.04580637,0.00852212
1704701993846943,-0.01436521,-0.03830723,10.38125896,0.02450108,0.04048005,0.00958738
1704701993848854,0.00478840,-0.03830723,10.37168217,0.02237055,0.05006743,0.00639159
1704701993850840,-0.00957681,-0.03830723,10.38125896,0.02556635,0.04687164,0.00319579
1704701993852853,-0.00957681,-0.02873042,10.39562416,0.03089267,0.03941479,0.01384844
1704701993854849,0.00478840,-0.03351882,10.39083576,0.04367584,0.04048005,0.01278317
1704701993856854,-0.01436521,-0.03351882,10.40041256,0.05326322,0.04580637,0.00319579
1704701993858860,0.00000000,-0.02394202,10.39562416,0.05858954,0.03089267,0.00745685
1704701993860867,0.00478840,-0.02873042,10.39083576,0.05645901,0.02024002,0.01491370
1704701993862843,-0.00478840,-0.02394202,10.41956615,0.05219796,0.02343582,0.01171791
1704701993864847,0.01436521,-0.01436521,10.40998936,0.05432849,0.03834952,0.01384844
1704701993866846,0.00478840,-0.02394202,10.41477776,0.05752428,0.03941479,0.02237055
1704701993868892,0.00478840,-0.00957681,10.42914295,0.05858954,0.03195793,0.01597897
1704701993870823,0.02394202,-0.00957681,10.41956615,0.05326322,0.02876214,0.00426106
1704701993872847,0.00957681,-0.01436521,10.44350815,0.03515373,0.03408846,-0.00745685
1704701993874884,0.02394202,-0.00478840,10.44829655,0.02556635,0.02982740,-0.01384844
1704701993876875,0.02873042,-0.01915361,10.44350815,0.02130529,0.02130529,-0.02024002
1704701993878809,0.01915361,-0.00957681,10.46266174,0.01491370,0.01597897,-0.01491370
1704701993880819,0.04309563,-0.02394202,10.47223854,-0.00319579,0.01065264,-0.01491370
1704701993882826,0.03351882,-0.02873042,10.47702694,-0.00958738,0.00745685,-0.01597897
1704701993885066,0.04309563,-0.00957681,10.48660374,-0.00958738,0.00639159,-0.01597897
1704701993886867,0.05746084,-0.03830723,10.48660374,-0.01065264,0.00213053,-0.01917476
1704701993888861,0.04788403,-0.03351882,10.49618053,-0.01278317,0.00000000,-0.02876214
1704701993890826,0.06703765,-0.01915361,10.50575733,-0.02450108,-0.00319579,-0.02769688
1704701993892824,0.06703765,-0.04788403,10.50096893,-0.02663161,-0.01278317,-0.01917476
1704701993894927,0.06224924,-0.03830723,10.50575733,-0.02663161,-0.01491370,-0.01810949
1704701993896862,0.08619126,-0.03830723,10.50096893,-0.03621899,-0.00213053,-0.02343582
1704701993898848,0.07661445,-0.05746084,10.50096893,-0.04900216,-0.00532632,-0.02237055
1704701993900837,0.07661445,-0.03351882,10.50575733,-0.04900216,-0.01065264,-0.01491370
1704701993902869,0.08619126,-0.05267244,10.50096893,-0.04367584,-0.00852212,-0.02130529
1704701993904869,0.07182605,-0.04788403,10.49618053,-0.04261058,0.00426106,-0.02343582
1704701993906846,0.07661445,-0.02873042,10.49139214,-0.03941479,0.00958738,-0.02024002
1704701993908853,0.07661445,-0.05267244,10.48660374,-0.03941479,0.00213053,-0.01384844
1704701993910861,0.06703765,-0.02873042,10.47702694,-0.04261058,0.00639159,-0.02450108
1704701993912863,0.07661445,-0.02873042,10.47702694,-0.03834952,0.01065264,-0.02556635
1704701993914854,0.07182605,-0.04788403,10.46745014,-0.02450108,0.00958738,-0.02343582
1704701993916813,0.07182605,-0.01436521,10.46266174,-0.01278317,0.00639159,-0.02237055
1704701993918956,0.08140286,-0.03830723,10.46266174,-0.01171791,0.00745685,-0.02663161
1704701993920837,0.07182605,-0.02873042,10.45308495,-0.01384844,0.01597897,-0.01384844
1704701993923087,0.07182605,-0.00478840,10.45308495,-0.00213053,0.01491370,-0.00532632
1704701993924849,0.07182605,-0.02873042,10.44350815,0.00958738,0.00213053,-0.01278317
1704701993926874,0.07182605,-0.00957681,10.43871975,0.00532632,0.00319579,-0.01810949
1704701993928864,0.08140286,-0.01436521,10.44829655,-0.01171791,0.00958738,-0.01917476
1704701993930816,0.07661445,-0.03830723,10.43871975,0.00106526,0.00426106,-0.00745685
1704701993932852,0.07661445,-0.00957681,10.43393135,0.01491370,0.00106526,-0.00213053
1704701993934885,0.07661445,-0.03830723,10.44350815,0.01810949,0.00106526,-0.00426106
1704701993936890,0.07661445,-0.03830723,10.42435455,0.00639159,-0.00745685,-0.00319579
1704701993938876,0.07661445,-0.01915361,10.42914295,0.00958738,-0.01278317,0.00213053
1704701993940828,0.08140286,-0.05746084,10.42914295,0.01597897,-0.00958738,-0.00532632
1704701993942866,0.07661445,-0.03830723,10.40520096,0.01810949,-0.01065264,-0.00639159
1704701993944873,0.08140286,-0.04788403,10.41956615,-0.00319579,-0.02237055,-0.00958738
1704701993946856,0.08619126,-0.07182605,10.40520096,-0.00958738,-0.02450108,-0.01065264
1704701993948829,0.08619126,-0.04309563,10.39083576,0.00426106,-0.02769688,-0.00852212
1704701993950843,0.09097967,-0.07182605,10.39562416,0.00958738,-0.03515373,-0.00639159
1704701993952891,0.09576806,-0.07182605,10.37168217,0.00319579,-0.04154531,-0.00639159
1704701993954846,0.09576806,-0.05746084,10.38125896,-0.00639159,-0.04154531,-0.00852212
1704701993956980,0.10055647,-0.08619126,10.38604736,-0.00958738,-0.03728426,0.00213053
1704701993958881,0.10534488,-0.06224924,10.35731697,-0.00958738,-0.04367584,0.00000000
1704701993960834,0.10534488,-0.06703765,10.38125896,-0.00745685,-0.05326322,-0.00213053
1704701993962845,0.11013328,-0.08619126,10.36689377,-0.01171791,-0.05219796,0.00319579
1704701993964878,0.10534488,-0.04788403,10.36210537,-0.01384844,-0.04580637,0.00319579
1704701993966852,0.11013328,-0.07182605,10.37647057,0.00000000,-0.04580637,0.00639159
1704701993968892,0.11971009,-0.05746084,10.34774017,-0.00106526,-0.05965481,0.00426106
1704701993970981,0.11492168,-0.03351882,10.35731697,-0.00639159,-0.06178534,0.00426106
1704701993972891,0.11492168,-0.05746084,10.36689377,-0.00745685,-0.06178534,-0.00319579
1704701993974958,0.11971009,-0.03351882,10.33816338,0.00745685,-0.06711166,0.00213053
1704701993976890,0.11492168,-0.03351882,10.35731697,0.01704423,-0.07350325,-0.00426106
1704701993978873,0.12449849,-0.04309563,10.34295177,0.02130529,-0.07137272,-0.00745685
1704701993980798,0.11971009,-0.01436521,10.33337498,0.02237055,-0.06817693,-0.00852212
1704701993982849,0.11971009,-0.03351882,10.35252857,0.02450108,-0.07137272,0.00639159
1704701993984864,0.12449849,-0.02394202,10.32379818,0.02556635,-0.06924219,0.01065264
1704701993986897,0.11492168,-0.00478840,10.33816338,0.03195793,-0.06817693,0.00319579
1704701993989011,0.11971009,-0.03351882,10.34295177,0.03408846,-0.06072007,0.00000000
1704701993990825,0.11971009,-0.00478840,10.32379818,0.03941479,-0.06711166,-0.00639159
1704701993992833,0.11013328,-0.01436521,10.34774017,0.03941479,-0.07882957,-0.00426106
1704701993994891,0.11492168,-0.01436521,10.31900978,0.04048005,-0.06924219,-0.00532632
1704701993996867,0.10534488,-0.00478840,10.32858658,0.03621899,-0.05965481,0.00426106
1704701993998806,0.10534488,-0.03351882,10.35252857,0.02876214,-0.05858954,0.00319579
1704701994000834,0.10534488,-0.00957681,10.33337498,0.02663161,-0.06817693,0.00426106
1704701994002892,0.09576806,-0.01436521,10.35252857,0.03408846,-0.06924219,-0.00106526
1704701994005043,0.10055647,-0.04309563,10.35252857,0.02876214,-0.05752428,0.00426106
1704701994006864,0.08619126,-0.01436521,10.34774017,0.02343582,-0.05006743,-0.00532632
1704701994008854,0.08619126,-0.03351882,10.36689377,0.02556635,-0.04900216,-0.00852212
1704701994010848,0.10055647,-0.04788403,10.34295177,0.01597897,-0.05432849,-0.01384844
1704701994012852,0.08619126,-0.02873042,10.34295177,0.00426106,-0.05539375,-0.00958738
1704701994014857,0.09097967,-0.05746084,10.36689377,0.01704423,-0.05539375,-0.00639159
1704701994016848,0.09576806,-0.04788403,10.33816338,0.03408846,-0.04793690,-0.00639159
1704701994018890,0.08140286,-0.04309563,10.36689377,0.02663161,-0.04261058,-0.00319579
1704701994020878,0.09576806,-0.06703765,10.36210537,0.02237055,-0.05006743,-0.00532632
1704701994022862,0.09097967,-0.04788403,10.34774017,0.03089267,-0.05645901,-0.01065264
1704701994024813,0.08619126,-0.06703765,10.38604736,0.02024002,-0.06072007,-0.01597897
1704701994026879,0.10055647,-0.07661445,10.37168217,0.01597897,-0.06178534,-0.02343582
1704701994029050,0.08619126,-0.06224924,10.37647057,0.02343582,-0.07030746,-0.02343582
1704701994030887,0.09576806,-0.08619126,10.39562416,0.02130529,-0.07030746,-0.01597897
1704701994032838,0.10055647,-0.08140286,10.37168217,-0.00319579,-0.06604639,-0.02343582
1704701994034895,0.09097967,-0.08140286,10.40520096,-0.02343582,-0.07030746,-0.01704423
1704701994036870,0.11013328,-0.10534488,10.40520096,-0.01917476,-0.08202536,-0.00532632
1704701994038880,0.09576806,-0.08619126,10.41477776,-0.01065264,-0.06817693,-0.00852212
1704701994040830,0.10055647,-0.09576806,10.42435455,-0.01171791,-0.05326322,-0.01384844
1704701994042781,0.11492168,-0.10055647,10.40520096,-0.02343582,-0.05432849,-0.01171791
1704701994044915,0.10534488,-0.09576806,10.43393135,-0.02663161,-0.07243798,-0.01065264
1704701994046884,0.11492168,-0.10534488,10.43393135,-0.01704423,-0.07563377,-0.00852212
1704701994048909,0.11492168,-0.09097967,10.40520096,-0.00319579,-0.07243798,-0.00745685
1704701994050845,0.10534488,-0.08140286,10.43871975,-0.00532632,-0.06604639,-0.01171791
1704701994052896,0.12449849,-0.09576806,10.42435455,-0.02343582,-0.06817693,0.00000000
1704701994054866,0.11013328,-0.07661445,10.41956615,-0.01171791,-0.07776430,-0.00639159
1704701994056880,0.11492168,-0.08140286,10.44829655,0.00213053,-0.08522116,0.00745685
1704701994058859,0.11971009,-0.07661445,10.42435455,0.00213053,-0.07030746,0.00106526
1704701994060884,0.10055647,-0.05746084,10.44350815,-0.01384844,-0.06391586,0.01810949
1704701994062918,0.11492168,-0.07182605,10.44829655,-0.01491370,-0.06498113,0.01810949
1704701994064865,0.11013328,-0.05746084,10.43393135,-0.03302320,-0.06178534,0.01810949
1704701994066836,0.10055647,-0.05267244,10.46745014,-0.03834952,-0.04687164,0.00958738
1704701994068930,0.11013328,-0.06703765,10.45308495,-0.04687164,-0.04793690,0.01065264
1704701994070844,0.09576806,-0.04788403,10.45308495,-0.05219796,-0.05113269,0.00852212
1704701994072856,0.10534488,-0.06224924,10.47702694,-0.06604639,-0.04687164,0.00532632
1704701994074882,0.10534488,-0.06703765,10.45308495,-0.05539375,-0.03515373,0.00319579
1704701994076916,0.09576806,-0.05267244,10.47223854,-0.05645901,-0.03302320,0.00106526
1704701994078871,0.11013328,-0.06703765,10.47223854,-0.05539375,-0.04048005,0.00745685
1704701994080831,0.09576806,-0.05746084,10.45787334,-0.05432849,-0.04261058,0.00000000
1704701994082856,0.10534488,-0.06703765,10.47702694,-0.03834952,-0.03195793,-0.00213053
1704701994084871,0.10534488,-0.07182605,10.46266174,-0.03834952,-0.03195793,0.00213053
1704701994086971,0.09576806,-0.05267244,10.47223854,-0.04154531,-0.04900216,0.00106526
1704701994088889,0.11013328,-0.07182605,10.48181534,-0.03621899,-0.06178534,-0.00639159
1704701994090809,0.10534488,-0.06224924,10.47223854,-0.03941479,-0.05645901,-0.00426106
1704701994092860,0.10534488,-0.05267244,10.49618053,-0.05219796,-0.04900216,-0.00532632
1704701994094890,0.11971009,-0.06703765,10.49139214,-0.06072007,-0.05858954,-0.00958738
1704701994096856,0.11013328,-0.05267244,10.48660374,-0.05219796,-0.07030746,-0.00639159
1704701994098869,0.11971009,-0.05746084,10.51533413,-0.05645901,-0.07243798,0.00106526
1704701994100828,0.12449849,-0.06703765,10.49618053,-0.05539375,-0.07456851,0.00000000
1704701994102867,0.11492168,-0.04788403,10.51054573,-0.05006743,-0.07563377,0.00213053
1704701994104882,0.12928689,-0.05746084,10.52012253,-0.03834952,-0.07456851,-0.00639159
1704701994106825,0.11971009,-0.05267244,10.51054573,-0.03195793,-0.07563377,-0.00958738
1704701994108865,0.11971009,-0.03830723,10.52969933,-0.03302320,-0.07989483,-0.00106526
1704701994110859,0.11971009,-0.04788403,10.52012253,-0.03302320,-0.08202536,0.00213053
1704701994112922,0.11013328,-0.02873042,10.52491093,-0.01917476,-0.07882957,-0.00106526
1704701994114834,0.11971009,-0.02394202,10.53927612,-0.01171791,-0.07243798,0.00213053
1704701994116923,0.11492168,-0.02394202,10.52012253,-0.01384844,-0.06817693,0.00213053
1704701994118888,0.11013328,-0.00478840,10.53448772,-0.00958738,-0.07137272,-0.01065264
1704701994120865,0.11492168,-0.01436521,10.52491093,0.00639159,-0.06498113,-0.00958738
1704701994122874,0.10534488,0.00000000,10.52012253,0.01171791,-0.05645901,-0.01171791
1704701994124791,0.11013328,0.00478840,10.53927612,0.02237055,-0.05539375,-0.01704423
1704701994126888,0.10534488,0.00478840,10.51533413,0.01704423,-0.06285060,-0.02663161
1704701994128882,0.10055647,0.01436521,10.52012253,0.01384844,-0.05539375,-0.02769688
1704701994130848,0.11013328,0.00957681,10.52969933,0.01810949,-0.04900216,-0.02450108
1704701994132838,0.10534488,0.00957681,10.51054573,0.01704423,-0.04793690,-0.01384844
1704701994134918,0.10534488,0.02394202,10.52012253,0.01278317,-0.04687164,-0.01597897
1704701994136956,0.11013328,0.00957681,10.50575733,0.00639159,-0.04261058,-0.01491370
1704701994138895,0.10055647,0.01915361,10.49139214,0.00532632,-0.03302320,-0.02343582
1704701994140818,0.11013328,0.01436521,10.49618053,0.00639159,-0.03302320,-0.02343582
1704701994142862,0.11013328,0.00478840,10.47223854,0.01065264,-0.03515373,-0.01917476
1704701994144885,0.10534488,0.01915361,10.47223854,0.00852212,-0.03302320,-0.00639159
1704701994146871,0.11971009,0.00478840,10.47223854,0.00639159,-0.02769688,-0.00532632
1704701994148861,0.11492168,0.00000000,10.44350815,0.00852212,-0.02343582,-0.00426106
1704701994150823,0.11971009,0.00957681,10.45308495,0.01065264,-0.02556635,-0.00213053
1704701994153012,0.12449849,-0.00957681,10.43393135,0.00639159,-0.02876214,0.01171791
1704701994154889,0.11971009,0.00000000,10.42435455,0.00745685,-0.03621899,0.00532632
1704701994156893,0.13407530,-0.00478840,10.42435455,0.00852212,-0.03302320,0.00639159
1704701994158868,0.12928689,-0.01436521,10.39562416,0.02343582,-0.02556635,0.00426106
1704701994160855,0.13407530,0.00000000,10.39562416,0.02769688,-0.02982740,0.00532632
1704701994162848,0.13886370,-0.01436521,10.38604736,0.02876214,-0.04154531,-0.00213053
1704701994164883,0.13886370,-0.00957681,10.36689377,0.01278317,-0.03621899,-0.00639159
1704701994166843,0.14365210,-0.00957681,10.36689377,0.01597897,-0.03408846,-0.00532632
1704701994168935,0.14365210,-0.03351882,10.34295177,0.01384844,-0.04048005,-0.00532632
1704701994170824,0.14844051,-0.01915361,10.33816338,0.01171791,-0.04580637,-0.00319579
1704701994172883,0.15322891,-0.03351882,10.33337498,0.01384844,-0.03941479,-0.00106526
1704701994174881,0.14365210,-0.04788403,10.30943298,0.00426106,-0.04154531,-0.00106526
1704701994176881,0.14844051,-0.03351882,10.30943298,-0.00745685,-0.04900216,0.00532632
1704701994178893,0.15322891,-0.05267244,10.29985619,-0.00852212,-0.05113269,0.00319579
1704701994180972,0.14844051,-0.05267244,10.27591324,0.00639159,-0.04154531,-0.00745685
1704701994182866,0.15801731,-0.04309563,10.28070164,0.00852212,-0.03621899,-0.01597897
1704701994184921,0.15322891,-0.06703765,10.25675964,0.00000000,-0.04793690,-0.01171791
1704701994186953,0.15322891,-0.04788403,10.24718285,0.00000000,-0.05539375,-0.01065264
1704701994188858,0.15801731,-0.05267244,10.24718285,0.01065264,-0.04580637,-0.01491370
1704701994190832,0.15322891,-0.06224924,10.22324085,0.01917476,-0.04048005,-0.00426106
1704701994192860,0.16280572,-0.04309563,10.21845245,0.01171791,-0.04793690,-0.00106526
1704701994194931,0.15801731,-0.05746084,10.20887566,0.01491370,-0.05432849,0.00000000
1704701994196914,0.15322891,-0.05746084,10.18972206,0.02450108,-0.04900216,-0.00106526
1704701994198835,0.15801731,-0.04788403,10.18972206,0.01917476,-0.04367584,0.00319579
1704701994200925,0.14844051,-0.06703765,10.17535686,0.01171791,-0.04687164,-0.00213053
1704701994202859,0.15322891,-0.05746084,10.16578007,0.02237055,-0.05539375,-0.00213053
1704701994204867,0.14844051,-0.06703765,10.16578007,0.02450108,-0.04793690,0.00000000
1704701994206874,0.13886370,-0.07661445,10.15141487,0.01278317,-0.03941479,0.00426106
1704701994208868,0.14844051,-0.06703765,10.15620327,0.00106526,-0.04687164,0.00852212
1704701994210982,0.13886370,-0.08619126,10.15620327,-0.00426106,-0.05006743,0.01065264
1704701994212776,0.13886370,-0.08619126,10.14662647,-0.00532632,-0.03621899,0.00106526
1704701994214877,0.12928689,-0.09097967,10.16099167,-0.00958738,-0.03941479,0.00426106
1704701994216835,0.12449849,-0.10055647,10.16099167,-0.00639159,-0.04687164,0.00745685
1704701994219126,0.12928689,-0.08619126,10.16099167,-0.00852212,-0.04367584,0.00745685
1704701994220824,0.11492168,-0.09576806,10.16578007,0.00000000,-0.02982740,0.01065264
1704701994222848,0.11492168,-0.09576806,10.16099167,0.00106526,-0.03089267,0.01704423
1704701994224836,0.12928689,-0.07661445,10.17056847,-0.00213053,-0.03408846,0.01278317
1704701994226889,0.11013328,-0.08619126,10.18014526,-0.00106526,-0.03408846,0.01384844
1704701994228877,0.11492168,-0.08140286,10.17535686,0.00106526,-0.03195793,0.00532632
1704701994230848,0.11971009,-0.07182605,10.18972206,-0.00639159,-0.03515373,0.01704423
1704701994232844,0.11013328,-0.08619126,10.19451046,-0.01384844,-0.03621899,0.00958738
1704701994234913,0.12449849,-0.07661445,10.19451046,-0.02130529,-0.03089267,0.00745685
1704701994236904,0.11013328,-0.07661445,10.21366405,-0.01278317,-0.02876214,0.00426106
1704701994238869,0.11013328,-0.08619126,10.21366405,-0.01065264,-0.02876214,0.01065264
1704701994240817,0.11971009,-0.07661445,10.21845245,-0.02450108,-0.02982740,0.01597897
1704701994242851,0.10055647,-0.09097967,10.23281765,-0.03408846,-0.01704423,0.00852212
1704701994244931,0.11971009,-0.09097967,10.22802925,-0.02024002,-0.00319579,0.00532632
1704701994246883,0.11013328,-0.08140286,10.24718285,-0.01597897,-0.00639159,0.00532632
1704701994248861,0.10055647,-0.09097967,10.25675964,-0.01704423,-0.01065264,-0.00106526
1704701994250893,0.11013328,-0.07661445,10.26154804,-0.01491370,-0.00852212,-0.00958738
1704701994252937,0.09097967,-0.07661445,10.28549004,-0.02556635,0.01065264,-0.01065264
1704701994254884,0.10534488,-0.07661445,10.28070164,-0.03195793,0.01704423,-0.00319579
1704701994256915,0.10055647,-0.05746084,10.29506683,-0.02769688,0.01810949,-0.00213053
1704701994258869,0.09576806,-0.07182605,10.30943298,-0.03195793,0.01278317,-0.00106526
1704701994260849,0.10055647,-0.06703765,10.30943298,-0.05006743,0.01597897,0.00319579
1704701994262846,0.08140286,-0.05746084,10.32858658,-0.05965481,0.02130529,0.00426106
1704701994264883,0.08619126,-0.07182605,10.33337498,-0.04900216,0.01704423,0.00319579
1704701994266887,0.09576806,-0.06703765,10.32858658,-0.05113269,0.01171791,-0.00106526
1704701994268889,0.07182605,-0.06703765,10.35252857,-0.06817693,0.00958738,-0.00213053
1704701994270830,0.09097967,-0.07661445,10.34774017,-0.06924219,0.00319579,-0.00213053
1704701994272851,0.07661445,-0.06703765,10.36210537,-0.04900216,0.00532632,0.00213053
1704701994274867,0.07182605,-0.07661445,10.37647057,-0.04048005,0.01065264,-0.00745685
1704701994276887,0.09576806,-0.06703765,10.36210537,-0.05326322,0.00852212,-0.01278317
1704701994278918,0.06703765,-0.06224924,10.39083576,-0.04793690,0.00106526,-0.00106526
1704701994280868,0.08140286,-0.07661445,10.39562416,-0.03834952,0.00639159,-0.00319579
1704701994282831,0.08140286,-0.06224924,10.39562416,-0.03621899,0.01065264,-0.00745685
1704701994284888,0.06224924,-0.06224924,10.41956615,-0.03302320,0.00852212,-0.00319579
1704701994286880,0.09576806,-0.06224924,10.40041256,-0.02769688,0.01597897,0.00426106
1704701994288874,0.07182605,-0.05267244,10.41956615,-0.03089267,0.02450108,-0.01171791
1704701994290838,0.08140286,-0.06224924,10.42914295,-0.03195793,0.02130529,-0.01065264
1704701994292863,0.09097967,-0.05267244,10.40998936,-0.03515373,0.01597897,0.00426106
1704701994294945,0.06224924,-0.05267244,10.43393135,-0.03728426,0.02663161,-0.00213053
1704701994296882,0.09576806,-0.05746084,10.40520096,-0.03089267,0.04580637,-0.00745685
1704701994298868,0.08140286,-0.05267244,10.40998936,-0.03302320,0.05006743,-0.00639159
1704701994300847,0.07661445,-0.05746084,10.42914295,-0.04154531,0.03408846,-0.00745685
1704701994302874,0.09576806,-0.06224924,10.40520096,-0.04261058,0.03515373,-0.01384844
1704701994304896,0.06224924,-0.05267244,10.41477776,-0.02769688,0.04474111,-0.01065264
1704701994306883,0.08140286,-0.06224924,10.40998936,-0.03089267,0.04900216,-0.01704423
1704701994308862,0.07661445,-0.05267244,10.39083576,-0.03621899,0.03834952,-0.02024002
1704701994310869,0.05746084,-0.05267244,10.41477776,-0.02769688,0.03621899,-0.01491370
1704701994312933,0.07661445,-0.05746084,10.39562416,-0.01597897,0.03302320,-0.01810949
1704701994314851,0.04309563,-0.05267244,10.39083576,-0.02130529,0.04154531,-0.01065264
1704701994317016,0.04788403,-0.05267244,10.40041256,-0.03621899,0.05326322,-0.00532632
1704701994319009,0.05746084,-0.05267244,10.37647057,-0.03515373,0.04687164,-0.00213053
1704701994320944,0.02873042,-0.04309563,10.39562416,-0.02343582,0.03941479,-0.00213053
1704701994322889,0.04788403,-0.04788403,10.38604736,-0.01384844,0.04261058,0.00319579
1704701994324866,0.02873042,-0.04309563,10.37168217,-0.02556635,0.04048005,0.00319579
1704701994326865,0.02394202,-0.03830723,10.39083576,-0.03515373,0.04367584,0.00213053
1704701994328889,0.04788403,-0.04788403,10.37168217,-0.02769688,0.05219796,-0.00106526
1704701994330940,0.01915361,-0.04309563,10.38125896,-0.01704423,0.04580637,0.00426106
1704701994332823,0.03830723,-0.04309563,10.38604736,-0.02556635,0.03728426,0.00426106
1704701994334988,0.03351882,-0.05267244,10.37168217,-0.03941479,0.03408846,0.00532632
1704701994336907,0.01915361,-0.04309563,10.39083576,-0.02982740,0.05006743,0.00213053
1704701994339135,0.04788403,-0.05267244,10.38125896,-0.02130529,0.05645901,-0.00745685
1704701994340836,0.02394202,-0.03830723,10.38125896,-0.01278317,0.05113269,-0.01065264
1704701994342861,0.03351882,-0.03830723,10.38604736,-0.01384844,0.05006743,-0.00958738
1704701994344924,0.03351882,-0.05267244,10.37168217,0.00106526,0.05645901,-0.00639159
1704701994346878,0.01436521,-0.03830723,10.37647057,-0.00319579,0.06711166,-0.00426106
1704701994348857,0.03830723,-0.02873042,10.37168217,-0.00213053,0.07030746,-0.00106526
1704701994350842,0.01915361,-0.03830723,10.35731697,-0.00639159,0.06498113,-0.00639159
1704701994352964,0.01436521,-0.01436521,10.36210537,-0.00426106,0.07137272,-0.00958738
1704701994354884,0.02873042,-0.03351882,10.35252857,-0.01171791,0.08628642,-0.00639159
1704701994356971,0.00478840,-0.02394202,10.33816338,-0.01810949,0.08628642,-0.00426106
1704701994358868,0.02394202,-0.00957681,10.33816338,-0.00639159,0.08735169,-0.00532632
1704701994360980,0.01436521,-0.03830723,10.31422138,0.00532632,0.09161274,-0.00532632
1704701994362943,0.00478840,-0.00957681,10.30464458,-0.00106526,0.08948221,0.00319579
1704701994364833,0.02394202,-0.01915361,10.29506683,-0.00745685,0.08096009,-0.00106526
1704701994366836,0.00478840,-0.02873042,10.27112484,-0.00532632,0.08415589,-0.00852212
1704701994368904,0.01915361,0.00000000,10.26154804,-0.00106526,0.09161274,-0.00745685
1704701994370834,0.02394202,-0.03351882,10.24718285,-0.01065264,0.09054748,-0.01065264
1704701994372857,0.01436521,-0.00957681,10.21845245,-0.01171791,0.08202536,-0.01065264
1704701994374846,0.02873042,-0.01436521,10.21366405,0.00000000,0.07989483,-0.00213053
1704701994376778,0.01436521,-0.04309563,10.18493366,-0.00426106,0.08522116,-0.00213053
1704701994379055,0.02394202,-0.00957681,10.16099167,-0.01065264,0.09693906,-0.00745685
1704701994380842,0.02873042,-0.04309563,10.15141487,-0.01491370,0.08948221,-0.00639159
1704701994382876,0.01436521,-0.03830723,10.11789608,-0.01278317,0.08628642,-0.00319579
1704701994384894,0.01915361,-0.04309563,10.10353088,-0.00426106,0.09906960,-0.00639159
1704701994386900,0.01436521,-0.05746084,10.09395409,0.00213053,0.09374327,-0.00745685
1704701994388880,0.01436521,-0.02394202,10.07001209,-0.00532632,0.09587380,-0.00532632
1704701994390864,0.01915361,-0.03830723,10.07480049,-0.00958738,0.10120012,-0.00426106
1704701994392975,0.00957681,-0.05746084,10.05085850,-0.00319579,0.10652644,-0.00852212
1704701994394906,0.01436521,-0.01915361,10.04128170,-0.01065264,0.10333065,-0.00852212
1704701994397006,0.00957681,-0.05746084,10.05085850,-0.01810949,0.10759171,0.00000000
1704701994398842,0.00478840,-0.03351882,10.02691650,-0.01171791,0.11611383,-0.00213053
1704701994400847,0.00478840,-0.02873042,10.02691650,-0.00106526,0.11930962,-0.00852212
1704701994402890,0.00000000,-0.05267244,10.02212811,-0.00213053,0.12250541,-0.01491370
1704701994404892,0.00957681,-0.01436521,10.00297451,0.00745685,0.11930962,-0.01917476
1704701994406866,0.00478840,-0.03351882,10.02212811,0.01597897,0.10972223,-0.01171791
1704701994408854,0.00000000,-0.02394202,9.99818611,0.01917476,0.11078750,-0.01384844
1704701994410989,0.00478840,0.00478840,9.99339771,0.02343582,0.11504856,-0.00852212
1704701994412868,0.00000000,-0.02394202,10.00776291,0.01491370,0.11611383,-0.00639159
1704701994414977,0.00957681,0.00957681,9.97903252,0.00639159,0.11504856,-0.00106526
1704701994416837,0.00957681,0.00000000,9.99818611,0.01278317,0.11930962,-0.00639159
1704701994419003,0.00478840,-0.00478840,9.99339771,0.02769688,0.11398330,-0.00106526
1704701994420887,0.01436521,0.02873042,9.97903252,0.02130529,0.11504856,0.00000000
1704701994422959,0.00478840,0.00478840,10.00297451,0.00532632,0.12463594,-0.00532632
1704701994424858,0.01436521,0.02873042,9.98382092,0.00213053,0.12463594,-0.00639159
1704701994426903,0.01915361,0.03351882,9.98860931,0.01171791,0.12250541,-0.00106526
1704701994429033,0.01436521,0.01915361,9.99818611,0.00639159,0.11504856,-0.00213053
1704701994430830,0.02394202,0.04788403,9.98382092,0.01065264,0.10865697,-0.00213053
1704701994432909,0.01436521,0.02873042,10.00776291,0.01704423,0.11398330,-0.00639159
1704701994434887,0.02394202,0.03830723,10.00297451,0.02237055,0.12783173,-0.00958738
1704701994436884,0.03830723,0.04309563,9.99818611,0.02130529,0.11398330,-0.00958738
1704701994438884,0.03351882,0.01915361,10.01733971,0.02237055,0.09906960,-0.00426106
1704701994440830,0.04309563,0.03830723,10.00776291,0.02130529,0.11398330,-0.00745685
1704701994442863,0.04788403,0.02394202,10.02212811,0.02450108,0.12144014,-0.01065264
1704701994444884,0.05746084,0.02394202,10.03170490,0.03941479,0.10972223,-0.01384844
1704701994446920,0.06703765,0.03351882,10.02212811,0.04154531,0.10226539,-0.01171791
1704701994448871,0.06224924,0.01436521,10.05085850,0.04580637,0.10652644,-0.01278317
1704701994450855,0.07182605,0.03351882,10.05085850,0.05539375,0.10652644,-0.00426106
1704701994452861,0.07661445,0.01915361,10.06043530,0.04900216,0.11078750,-0.00426106
1704701994454917,0.07661445,0.01915361,10.07480049,0.03621899,0.11398330,-0.01065264
1704701994456850,0.08140286,0.03351882,10.07480049,0.04474111,0.11717909,-0.01597897
1704701994458824,0.07182605,0.01915361,10.09395409,0.05326322,0.11717909,-0.00639159
1704701994460848,0.07182605,0.03351882,10.11310768,0.05326322,0.10759171,0.00213053
1704701994462867,0.06703765,0.03351882,10.11789608,0.04474111,0.10226539,-0.00213053
1704701994464940,0.06224924,0.03351882,10.13226128,0.04474111,0.10972223,-0.01491370
1704701994466867,0.06224924,0.04788403,10.13704967,0.06285060,0.11185277,-0.01491370
1704701994468917,0.05746084,0.03830723,10.14662647,0.06604639,0.09906960,-0.01810949
1704701994470858,0.06224924,0.05267244,10.16578007,0.05965481,0.08202536,-0.01810949
1704701994472935,0.05267244,0.05267244,10.17056847,0.05539375,0.08841695,-0.01491370
1704701994474875,0.06224924,0.05267244,10.17056847,0.06711166,0.09267800,-0.01171791
1704701994476894,0.06224924,0.06224924,10.18014526,0.07243798,0.08948221,-0.01704423
1704701994478858,0.06224924,0.05267244,10.18972206,0.05539375,0.07456851,-0.02024002
1704701994480857,0.07182605,0.06224924,10.20408726,0.05113269,0.06285060,-0.02343582
1704701994482835,0.06703765,0.05267244,10.21366405,0.05965481,0.06498113,-0.02024002
1704701994484898,0.08140286,0.05746084,10.21366405,0.07030746,0.06178534,-0.01810949
1704701994486899,0.08140286,0.06224924,10.22802925,0.06498113,0.05432849,-0.02556635
1704701994488882,0.07661445,0.04788403,10.23281765,0.05965481,0.04900216,-0.02556635
1704701994491015,0.08619126,0.05746084,10.23760605,0.05219796,0.04474111,-0.01597897
1704701994492885,0.07661445,0.04788403,10.25675964,0.05432849,0.03195793,-0.01384844
1704701994494925,0.08619126,0.05267244,10.24718285,0.05965481,0.02876214,-0.00958738
1704701994496892,0.08619126,0.05746084,10.25675964,0.06817693,0.03834952,-0.00213053
1704701994498887,0.08140286,0.04309563,10.25675964,0.06498113,0.03621899,-0.00106526
1704701994500860,0.09097967,0.05267244,10.25197124,0.05645901,0.02237055,0.00319579
1704701994502860,0.07661445,0.04788403,10.27112484,0.06391586,0.02130529,0.00426106
1704701994504884,0.08140286,0.04309563,10.25197124,0.08415589,0.03621899,0.00639159
1704701994506871,0.08619126,0.04788403,10.26154804,0.08202536,0.03302320,0.00000000
1704701994508872,0.07182605,0.04309563,10.26633644,0.07350325,0.02663161,0.00213053
1704701994510886,0.08619126,0.04788403,10.25197124,0.08415589,0.03302320,0.00106526
1704701994512868,0.06703765,0.03351882,10.26633644,0.08841695,0.03195793,0.00213053
1704701994514888,0.06703765,0.03830723,10.25675964,0.08628642,0.03089267,0.00639159
1704701994516953,0.07182605,0.03351882,10.25675964,0.07776430,0.02556635,0.01065264
1704701994518903,0.04788403,0.02873042,10.26633644,0.07137272,0.03515373,0.00106526
1704701994520975,0.06224924,0.02873042,10.24718285,0.08096009,0.04261058,-0.00213053
1704701994522897,0.04788403,0.01915361,10.26154804,0.07669904,0.03728426,0.01065264
1704701994524870,0.03830723,0.02873042,10.26154804,0.07030746,0.02982740,0.01384844
1704701994526921,0.04788403,0.01915361,10.25675964,0.07882957,0.02982740,0.01065264
1704701994528898,0.02394202,0.01436521,10.26633644,0.09374327,0.04367584,0.00745685
1704701994530841,0.03830723,0.02394202,10.25197124,0.08628642,0.03408846,0.00532632
1704701994532863,0.03830723,0.01436521,10.25675964,0.08202536,0.02663161,0.00319579
1704701994534906,0.01915361,0.01915361,10.26633644,0.09267800,0.02450108,0.00426106
1704701994536912,0.03351882,0.01915361,10.25675964,0.09906960,0.02769688,0.00213053
1704701994538877,0.01436521,0.01915361,10.26633644,0.09587380,0.03089267,0.00639159
1704701994540860,0.01915361,0.03351882,10.26154804,0.09374327,0.03195793,0.01171791
1704701994542854,0.02394202,0.01915361,10.26154804,0.10439591,0.03834952,-0.00426106
1704701994544933,0.00478840,0.03351882,10.27112484,0.10439591,0.03515373,-0.01917476
1704701994546895,0.01915361,0.03351882,10.26154804,0.10013486,0.01917476,-0.01278317
1704701994548894,0.00957681,0.02873042,10.26154804,0.08735169,0.01704423,-0.01278317
1704701994550847,0.00957681,0.04788403,10.26633644,0.07882957,0.02024002,-0.02130529
1704701994552959,0.02394202,0.03351882,10.25197124,0.08628642,0.01384844,-0.01597897
1704701994554905,0.00957681,0.04788403,10.25675964,0.09267800,0.00000000,-0.00852212
1704701994556857,0.01915361,0.04788403,10.25675964,0.08415589,-0.00213053,-0.00852212
1704701994558912,0.01915361,0.03830723,10.24239445,0.07669904,0.00639159,-0.01171791
1704701994560978,0.01436521,0.05746084,10.24239445,0.07669904,0.00639159,-0.00426106
1704701994562873,0.02873042,0.03830723,10.23281765,0.07030746,0.00000000,-0.00852212
1704701994564873,0.02394202,0.04788403,10.23281765,0.05645901,-0.01171791,-0.01065264
1704701994566872,0.02394202,0.04788403,10.23760605,0.05326322,-0.00745685,-0.00639159
1704701994568931,0.03351882,0.03351882,10.21845245,0.06604639,-0.00426106,-0.00319579
1704701994570837,0.02394202,0.05267244,10.22324085,0.06924219,-0.01065264,-0.00958738
1704701994572880,0.03830723,0.03830723,10.20887566,0.05645901,-0.01491370,-0.01384844
1704701994574875,0.03351882,0.04309563,10.19929886,0.06817693,-0.00958738,-0.01597897
1704701994576906,0.02873042,0.04788403,10.20887566,0.08202536,0.00000000,-0.01917476
1704701994578865,0.04309563,0.03830723,10.18972206,0.06391586,-0.00106526,-0.01597897
1704701994580866,0.03351882,0.05267244,10.18972206,0.04793690,-0.00319579,-0.01171791
1704701994582869,0.03830723,0.04309563,10.18972206,0.07350325,0.00319579,-0.01491370
1704701994584932,0.04309563,0.03830723,10.16578007,0.08841695,0.01917476,-0.01597897
1704701994586920,0.02873042,0.05267244,10.17535686,0.07137272,0.01917476,-0.02024002
1704701994588913,0.04788403,0.03830723,10.15620327,0.06072007,0.01278317,-0.02024002
1704701994590814,0.03830723,0.04309563,10.14662647,0.07030746,0.02769688,-0.01810949
1704701994592853,0.03351882,0.04788403,10.14662647,0.07563377,0.04474111,-0.02024002
1704701994594946,0.04788403,0.03830723,10.12268448,0.07030746,0.03621899,-0.02130529
1704701994596902,0.03351882,0.04788403,10.13226128,0.06711166,0.02237055,-0.01278317
1704701994598874,0.03351882,0.04309563,10.11789608,0.08309063,0.03621899,-0.01384844
1704701994600856,0.03830723,0.03830723,10.09874249,0.09054748,0.05113269,-0.01171791
1704701994602867,0.02394202,0.05267244,10.10831928,0.06498113,0.04367584,0.00106526
1704701994604835,0.04309563,0.04309563,10.08916569,0.04580637,0.03408846,0.00000000
1704701994606884,0.02873042,0.03830723,10.09395409,0.06924219,0.04261058,-0.01065264
1704701994608887,0.02873042,0.04788403,10.08916569,0.08309063,0.04900216,-0.00745685
1704701994610971,0.04309563,0.03830723,10.07480049,0.06711166,0.03834952,-0.00319579
1704701994612860,0.02394202,0.04309563,10.08916569,0.05219796,0.03089267,-0.00745685
1704701994614882,0.03830723,0.03830723,10.07480049,0.06285060,0.03302320,-0.00319579
1704701994616884,0.03830723,0.02394202,10.06522369,0.06604639,0.03302320,0.00000000
1704701994618898,0.02394202,0.03830723,10.07001209,0.07137272,0.02663161,0.00106526
1704701994620849,0.04309563,0.02394202,10.06043530,0.07137272,0.02343582,0.00426106
1704701994622875,0.02873042,0.02394202,10.06522369,0.06711166,0.03941479,0.00319579
1704701994624889,0.03351882,0.02873042,10.05564690,0.06498113,0.03834952,-0.00852212
1704701994626921,0.04788403,0.00957681,10.04128170,0.06604639,0.01704423,0.00745685
1704701994628864,0.02873042,0.02394202,10.04607010,0.06391586,0.00532632,0.00532632
1704701994630858,0.04309563,0.00957681,10.03649330,0.07030746,0.01917476,-0.00106526
1704701994632868,0.04309563,0.00000000,10.02691650,0.07030746,0.01597897,0.00213053
1704701994635048,0.03830723,0.01436521,10.01733971,0.07030746,0.00319579,0.00958738
1704701994636886,0.05746084,-0.01436521,10.00776291,0.07030746,-0.00958738,-0.00106526
1704701994638864,0.03830723,0.00000000,10.00297451,0.07456851,-0.00852212,0.00639159
1704701994640848,0.04309563,0.00000000,10.00297451,0.07882957,-0.00213053,0.00532632
1704701994642871,0.05267244,-0.01915361,9.98382092,0.07669904,-0.00319579,0.00958738
1704701994644896,0.03351882,0.00478840,9.97903252,0.07563377,-0.01597897,0.00745685
1704701994646901,0.05267244,-0.01915361,9.96945572,0.08202536,-0.02450108,0.01384844
1704701994648857,0.04309563,-0.01436521,9.95030212,0.08948221,-0.02343582,0.00319579
1704701994650934,0.03830723,-0.00478840,9.95509052,0.08309063,-0.02130529,0.00106526
1704701994652892,0.05267244,-0.02873042,9.93593693,0.07030746,-0.02237055,-0.00213053
1704701994654874,0.03830723,-0.00478840,9.92636013,0.06817693,-0.02876214,0.00213053
1704701994656880,0.05267244,-0.02394202,9.93114853,0.07456851,-0.03302320,-0.00213053
1704701994658891,0.05746084,-0.02394202,9.91199493,0.06604639,-0.02982740,-0.00106526
1704701994660875,0.04309563,-0.00478840,9.92157173,0.05965481,-0.03728426,0.00639159
1704701994662872,0.06703765,-0.02873042,9.91199493,0.06072007,-0.04900216,0.00426106
1704701994664887,0.05267244,-0.00957681,9.89762974,0.06072007,-0.04367584,0.00426106
1704701994666889,0.05746084,-0.00957681,9.91678333,0.04900216,-0.03834952,-0.00106526
1704701994669016,0.07182605,-0.02394202,9.89762974,0.04154531,-0.05219796,-0.00426106
1704701994670879,0.05267244,0.00000000,9.90241814,0.04474111,-0.05326322,-0.00106526
1704701994673045,0.06703765,-0.01436521,9.90720654,0.04367584,-0.05113269,-0.00639159
1704701994674872,0.06224924,-0.00478840,9.88805294,0.02982740,-0.04580637,-0.01491370
1704701994676903,0.05746084,0.00478840,9.90720654,0.02876214,-0.04154531,-0.00958738
1704701994678893,0.07661445,-0.01915361,9.89284134,0.03408846,-0.04580637,-0.01171791
1704701994680864,0.05267244,0.00000000,9.88805294,0.02556635,-0.05432849,-0.01597897
1704701994682866,0.06224924,-0.00478840,9.90720654,0.01278317,-0.04793690,-0.01065264
1704701994684932,0.06703765,-0.01915361,9.88805294,0.00852212,-0.03834952,-0.01491370
1704701994686897,0.04788403,0.00000000,9.90720654,0.00852212,-0.03089267,-0.02024002
1704701994688883,0.07182605,-0.01915361,9.90720654,-0.00532632,-0.03195793,-0.01384844
1704701994690817,0.05746084,-0.01915361,9.90720654,-0.00106526,-0.02663161,-0.00639159
1704701994692862,0.05746084,-0.00957681,9.93114853,0.00745685,-0.02237055,-0.00852212
1704701994694905,0.06224924,-0.02873042,9.91678333,-0.00319579,-0.01810949,-0.01171791
1704701994696890,0.04788403,-0.00478840,9.93114853,-0.01491370,-0.01278317,-0.01384844
1704701994698893,0.06224924,-0.01436521,9.94551373,-0.02237055,-0.01171791,-0.01491370
1704701994700848,0.05746084,-0.03351882,9.93593693,-0.02237055,-0.01065264,-0.01917476
1704701994702881,0.05267244,-0.00478840,9.95509052,-0.02663161,-0.00639159,-0.02556635
1704701994704865,0.05746084,-0.03351882,9.95509052,-0.03728426,-0.01171791,-0.01278317
1704701994706875,0.04788403,-0.01915361,9.95509052,-0.05858954,-0.00852212,-0.00639159
1704701994708868,0.05267244,-0.01436521,9.96945572,-0.05752428,-0.00106526,-0.00852212
1704701994710913,0.05267244,-0.04309563,9.96466732,-0.06817693,0.00000000,-0.00106526
1704701994712897,0.04309563,-0.00957681,9.97424412,-0.07776430,-0.00532632,0.00426106
1704701994714886,0.04309563,-0.02873042,9.98860931,-0.06391586,-0.00852212,-0.00106526
1704701994716771,0.04788403,-0.03351882,9.98860931,-0.06178534,-0.00319579,0.00213053
1704701994718893,0.03830723,-0.00478840,9.99818611,-0.08096009,0.00213053,0.00532632
1704701994720862,0.04309563,-0.03351882,10.01255131,-0.07989483,-0.00532632,-0.00106526
1704701994722945,0.03830723,-0.00478840,10.01255131,-0.06072007,-0.01171791,0.00213053
1704701994724840,0.03351882,0.00478840,10.03170490,-0.04474111,-0.00106526,-0.00106526
1704701994726916,0.04309563,-0.00957681,10.03170490,-0.04154531,0.00532632,-0.00852212
1704701994728909,0.03830723,0.03351882,10.03170490,-0.04580637,0.00213053,-0.00745685
1704701994730858,0.04309563,0.00957681,10.06043530,-0.04154531,-0.00319579,-0.00213053
1704701994732868,0.04788403,0.02394202,10.05085850,-0.02769688,0.00000000,-0.01278317
1704701994734906,0.03830723,0.04788403,10.06522369,-0.03728426,-0.00319579,-0.00639159
1704701994736890,0.05267244,0.02394202,10.07958889,-0.05006743,-0.01810949,0.00213053
1704701994738882,0.04309563,0.05746084,10.07001209,-0.04154531,-0.02343582,-0.00106526
1704701994740842,0.04309563,0.04309563,10.10353088,-0.02982740,-0.02237055,-0.00745685
1704701994742864,0.05746084,0.03830723,10.09395409,-0.04474111,-0.02876214,-0.00319579
1704701994744913,0.04309563,0.06703765,10.09874249,-0.04154531,-0.03621899,0.00106526
1704701994746918,0.06224924,0.03830723,10.12268448,-0.03941479,-0.03408846,-0.00213053
1704701994748852,0.05746084,0.05746084,10.10353088,-0.03621899,-0.02876214,-0.00319579
1704701994750851,0.05746084,0.05746084,10.13226128,-0.03621899,-0.02663161,-0.00106526
1704701994752897,0.07661445,0.03830723,10.12268448,-0.02343582,-0.04048005,0.00319579
1704701994754861,0.06224924,0.06224924,10.11789608,-0.01491370,-0.04793690,0.00745685
1704701994756904,0.08140286,0.04309563,10.14662647,-0.01491370,-0.04261058,0.00639159
1704701994758859,0.07661445,0.04788403,10.11789608,-0.01065264,-0.03834952,0.01278317
1704701994760871,0.07661445,0.05746084,10.14183807,0.00000000,-0.04580637,0.00958738
1704701994762881,0.09576806,0.03351882,10.13704967,0.00958738,-0.05006743,0.00958738
1704701994764866,0.07661445,0.05267244,10.12268448,0.01065264,-0.04580637,0.01065264
1704701994766961,0.09097967,0.04309563,10.14662647,0.00426106,-0.03834952,0.01597897
1704701994769378,0.08619126,0.02873042,10.12268448,0.01810949,-0.03408846,0.01065264
1704701994770856,0.07661445,0.04788403,10.13226128,0.02130529,-0.03834952,0.00852212
1704701994773094,0.09097967,0.02873042,10.13704967,0.02450108,-0.04048005,-0.00426106
1704701994774850,0.07661445,0.03351882,10.11789608,0.01597897,-0.03515373,-0.00745685
1704701994776917,0.08140286,0.04309563,10.13704967,0.02237055,-0.03515373,-0.00532632
1704701994778902,0.08140286,0.01915361,10.12268448,0.03089267,-0.04793690,-0.00639159
1704701994780866,0.07182605,0.03830723,10.12268448,0.04154531,-0.04580637,-0.01491370
1704701994782844,0.08140286,0.02394202,10.13226128,0.03621899,-0.03728426,-0.01597897
1704701994784906,0.07182605,0.01436521,10.12268448,0.02556635,-0.04261058,-0.01810949
1704701994786894,0.07661445,0.04309563,10.13704967,0.02663161,-0.05006743,-0.01278317
1704701994788891,0.07182605,0.01436521,10.13704967,0.04474111,-0.04367584,-0.01384844
1704701994790856,0.06703765,0.03351882,10.13226128,0.04367584,-0.04154531,-0.01597897
1704701994792876,0.07661445,0.03830723,10.14183807,0.04261058,-0.04367584,-0.00958738
1704701994794928,0.07182605,0.01436521,10.14183807,0.03728426,-0.04154531,-0.00426106
1704701994796914,0.07182605,0.04309563,10.13704967,0.03621899,-0.04261058,-0.01065264
1704701994798857,0.06703765,0.01915361,10.14662647,0.03728426,-0.04048005,-0.00852212
1704701994800864,0.06703765,0.00957681,10.14183807,0.03515373,-0.03515373,-0.00319579
1704701994802923,0.07182605,0.04309563,10.13704967,0.03302320,-0.03941479,-0.00426106
1704701994804874,0.06703765,0.01915361,10.15141487,0.02237055,-0.03728426,-0.01384844
1704701994806894,0.07182605,0.03351882,10.13704967,0.00426106,-0.03302320,-0.02237055
1704701994808879,0.06703765,0.03830723,10.14183807,0.00639159,-0.04048005,-0.01597897
1704701994811019,0.06224924,0.00000000,10.14662647,0.02024002,-0.04367584,-0.01810949
1704701994812920,0.06224924,0.02873042,10.13226128,0.00852212,-0.02876214,-0.02663161
1704701994814845,0.05746084,0.01915361,10.14183807,0.00426106,-0.02876214,-0.02024002
1704701994816900,0.06224924,0.00000000,10.13704967,0.00426106,-0.03728426,-0.00852212
1704701994818901,0.05746084,0.02873042,10.11789608,-0.00532632,-0.03621899,-0.00852212
1704701994820864,0.05267244,0.00000000,10.13704967,-0.00852212,-0.03089267,-0.01384844
1704701994822883,0.05267244,0.01436521,10.11310768,-0.00852212,-0.02769688,-0.01278317
1704701994824853,0.03830723,0.01436521,10.11789608,-0.01491370,-0.02237055,-0.01065264
1704701994826890,0.04788403,-0.00478840,10.11789608,-0.00319579,-0.01917476,-0.01810949
1704701994828937,0.04309563,0.01915361,10.08916569,0.00000000,-0.01171791,-0.02024002
1704701994830848,0.03830723,0.00000000,10.10831928,-0.01065264,-0.01278317,-0.01810949
1704701994832846,0.03830723,0.00000000,10.08437729,-0.00213053,-0.00532632,-0.02024002
1704701994834915,0.02873042,0.00957681,10.07480049,-0.00319579,-0.00213053,-0.02130529
1704701994836872,0.03830723,-0.00957681,10.08437729,-0.01704423,-0.00319579,-0.02237055
1704701994838908,0.02873042,0.00957681,10.04607010,-0.01278317,0.00319579,-0.01917476
1704701994840844,0.02873042,-0.00478840,10.06043530,-0.01491370,-0.00106526,-0.00426106
1704701994842870,0.03351882,-0.00478840,10.04128170,-0.03408846,0.00000000,-0.00213053
1704701994844917,0.02873042,0.00000000,10.02691650,-0.02663161,0.00532632,0.00106526
1704701994846908,0.03830723,-0.00478840,10.03170490,-0.01597897,0.00958738,0.00213053
1704701994848815,0.03351882,0.00478840,9.99818611,-0.01810949,0.00426106,-0.00319579
1704701994850849,0.04309563,0.00000000,10.00297451,-0.03089267,0.00319579,-0.00426106
1704701994852922,0.04309563,0.00000000,9.99339771,-0.03408846,-0.00106526,0.00000000
1704701994855109,0.02873042,0.00000000,9.96945572,-0.03515373,0.00106526,0.00106526
1704701994856879,0.04309563,0.00000000,9.97424412,-0.04261058,0.00639159,-0.00426106
1704701994858893,0.03351882,0.00000000,9.95987892,-0.04367584,0.00532632,0.00106526
1704701994860873,0.03830723,0.00478840,9.95509052,-0.04367584,0.00426106,-0.00106526
1704701994862919,0.04309563,0.00957681,9.95030212,-0.05006743,-0.00106526,-0.00319579
1704701994864888,0.02873042,0.00957681,9.94072533,-0.05326322,0.00532632,0.00532632
1704701994866890,0.05267244,0.01436521,9.93593693,-0.05219796,0.00319579,0.00745685
1704701994868880,0.03830723,0.00957681,9.93114853,-0.04900216,-0.00319579,0.00213053
1704701994870877,0.04788403,0.00957681,9.91678333,-0.05113269,-0.00639159,0.00852212
1704701994872904,0.05746084,0.01436521,9.91678333,-0.04154531,-0.01065264,0.00639159
1704701994874857,0.04309563,0.00957681,9.91199493,-0.03941479,-0.00852212,0.00000000
1704701994876901,0.07182605,0.01915361,9.90241814,-0.04261058,-0.00319579,-0.00319579
1704701994878955,0.05267244,0.01436521,9.90241814,-0.04687164,0.00000000,-0.00532632
1704701994880886,0.06224924,0.01915361,9.89284134,-0.04474111,-0.00213053,-0.00852212
1704701994882848,0.07661445,0.02394202,9.88326454,-0.03728426,-0.00213053,0.00106526
1704701994884916,0.04788403,0.01436521,9.89284134,-0.03834952,-0.01171791,0.00852212
1704701994886870,0.07661445,0.02873042,9.88326454,-0.04261058,-0.01065264,0.00532632
1704701994888906,0.04788403,0.02394202,9.89762974,-0.03195793,-0.00106526,-0.00426106
1704701994890847,0.05746084,0.02873042,9.89762974,-0.01704423,-0.00319579,-0.00852212
1704701994892858,0.08140286,0.03351882,9.87847614,-0.00745685,-0.00958738,-0.00532632
1704701994894952,0.05746084,0.03351882,9.89762974,-0.02130529,-0.01491370,-0.00319579
1704701994896918,0.07661445,0.03830723,9.89284134,-0.01810949,-0.01278317,0.00106526
1704701994898885,0.06224924,0.03351882,9.89284134,-0.00852212,-0.01171791,0.00106526
1704701994900853,0.05267244,0.04309563,9.90241814,0.00000000,-0.01278317,0.00000000
1704701994902888,0.07661445,0.04788403,9.87847614,0.00106526,-0.02024002,-0.00426106
1704701994904902,0.04788403,0.04309563,9.89762974,-0.00426106,-0.02450108,-0.00106526
1704701994906866,0.06224924,0.05746084,9.90241814,-0.00106526,-0.02130529,-0.00319579
1704701994908888,0.06224924,0.04788403,9.88805294,0.01065264,-0.01384844,0.00000000
1704701994910901,0.05267244,0.06224924,9.90241814,0.01171791,-0.02663161,0.00213053
1704701994912875,0.07182605,0.06703765,9.87847614,-0.00532632,-0.02769688,0.00213053
1704701994914914,0.06224924,0.05267244,9.88805294,-0.00319579,-0.02556635,-0.00319579
1704701994916891,0.06224924,0.07661445,9.89762974,0.01065264,-0.03302320,-0.00426106
1704701994918963,0.06703765,0.05746084,9.87368774,0.01597897,-0.03728426,0.00532632
1704701994920871,0.06224924,0.06224924,9.88805294,0.01384844,-0.03515373,0.00532632
1704701994922887,0.07182605,0.07182605,9.87847614,0.00639159,-0.03408846,0.00532632
1704701994924971,0.07182605,0.04309563,9.87368774,0.00106526,-0.03195793,0.00745685
1704701994926950,0.07182605,0.06703765,9.88326454,-0.00958738,-0.04154531,0.01278317
1704701994928901,0.07182605,0.04309563,9.87368774,-0.00958738,-0.04580637,0.00639159
1704701994930965,0.07182605,0.03830723,9.87368774,-0.01384844,-0.04261058,0.00319579
1704701994932881,0.06224924,0.02873042,9.87368774,-0.00958738,-0.03515373,0.00106526
1704701994934924,0.06703765,0.01436521,9.87368774,-0.01384844,-0.03834952,-0.00426106
1704701994936911,0.06703765,0.03351882,9.87368774,-0.01065264,-0.04154531,-0.00319579
1704701994938891,0.05267244,0.02394202,9.87847614,-0.00958738,-0.04367584,-0.01278317
1704701994940866,0.06703765,0.01436521,9.87368774,-0.00426106,-0.03621899,-0.01171791
1704701994942867,0.05267244,0.03351882,9.87847614,-0.01171791,-0.03195793,-0.02024002
1704701994944909,0.05267244,0.00957681,9.87847614,-0.01278317,-0.03515373,-0.01704423
1704701994946916,0.06224924,0.02394202,9.87368774,-0.00106526,-0.03728426,-0.01384844
1704701994948891,0.03351882,0.02394202,9.88326454,0.00958738,-0.03621899,-0.01491370
1704701994950857,0.05746084,0.01436521,9.88326454,0.01065264,-0.02769688,-0.02130529
1704701994952919,0.04309563,0.03830723,9.87847614,0.00745685,-0.03089267,-0.01597897
1704701994954905,0.03830723,0.02873042,9.88805294,0.01278317,-0.02556635,-0.01171791
1704701994956871,0.05746084,0.03351882,9.87847614,0.01917476,-0.02450108,-0.01704423
1704701994958898,0.02394202,0.04788403,9.89284134,0.00639159,-0.02024002,-0.00745685
1704701994960880,0.05267244,0.04309563,9.89284134,0.00532632,-0.02024002,-0.00639159
1704701994962968,0.04309563,0.05267244,9.88326454,0.00532632,-0.00532632,-0.01171791
1704701994964885,0.04788403,0.04788403,9.90241814,0.00319579,0.00000000,-0.01171791
1704701994966884,0.05746084,0.04788403,9.89284134,-0.00106526,0.00319579,-0.00852212
1704701994968872,0.01436521,0.05746084,9.90241814,0.00319579,0.00000000,-0.01597897
1704701994970971,0.05746084,0.05267244,9.90241814,0.01491370,0.01171791,-0.02024002
1704701994972886,0.03830723,0.05267244,9.89762974,0.00852212,0.01384844,-0.02024002
1704701994974843,0.01915361,0.06224924,9.92636013,-0.00745685,0.02024002,-0.02450108
1704701994976916,0.04309563,0.04788403,9.91199493,-0.00745685,0.00532632,-0.02450108
1704701994978893,0.01436521,0.05267244,9.91678333,-0.00106526,0.00852212,-0.02130529
1704701994980882,0.04309563,0.06703765,9.94072533,-0.01810949,0.01065264,-0.01917476
1704701994982904,0.04788403,0.04309563,9.93114853,-0.04474111,0.01171791,-0.01065264
1704701994984910,0.02394202,0.05267244,9.95509052,-0.04900216,0.00852212,-0.00745685
1704701994986899,0.06224924,0.04309563,9.96466732,-0.04367584,0.00319579,-0.00852212
1704701994988893,0.03830723,0.02394202,9.95987892,-0.04154531,0.00852212,-0.00639159
1704701994990858,0.04788403,0.04788403,9.98860931,-0.05219796,0.00426106,-0.00213053
1704701994992871,0.05746084,0.00957681,9.98860931,-0.05219796,0.00532632,-0.00213053
1704701994994947,0.04309563,0.02394202,9.99818611,-0.04261058,0.00852212,-0.00745685
1704701994996903,0.06224924,0.03351882,10.01255131,-0.04474111,0.01810949,-0.00426106
1704701994998897,0.05746084,0.00000000,10.00776291,-0.03302320,0.01917476,-0.00532632
1704701995000899,0.05746084,0.04309563,10.03170490,-0.02663161,0.01491370,0.00213053
1704701995002894,0.06224924,0.00957681,10.03649330,-0.01278317,0.02343582,-0.00213053
1704701995004894,0.05746084,0.02394202,10.03649330,-0.01704423,0.02556635,0.00745685
1704701995006874,0.05746084,0.05267244,10.04607010,-0.00745685,0.04367584,-0.00532632
1704701995008892,0.06224924,0.02873042,10.05085850,-0.00852212,0.03515373,-0.00213053
1704701995010991,0.06224924,0.05746084,10.05564690,-0.00958738,0.03728426,-0.01065264
1704701995012938,0.05746084,0.03351882,10.06522369,-0.01810949,0.03941479,0.00213053
1704701995014899,0.06703765,0.05267244,10.06522369,-0.02130529,0.05326322,-0.00426106
1704701995016907,0.05746084,0.05746084,10.07001209,-0.00532632,0.04793690,0.00958738
1704701995018924,0.06224924,0.01915361,10.07480049,-0.01065264,0.03941479,0.00958738
1704701995020861,0.06703765,0.04309563,10.07001209,-0.02663161,0.03621899,0.01171791
1704701995022886,0.05267244,0.04309563,10.08916569,-0.01917476,0.04367584,0.00532632
1704701995024883,0.07661445,0.01915361,10.07958889,-0.00319579,0.03728426,0.00745685
1704701995026894,0.06703765,0.04788403,10.07001209,-0.01065264,0.02769688,0.00319579
1704701995028892,0.07182605,0.02873042,10.09395409,-0.01065264,0.02343582,0.00639159
1704701995030881,0.08619126,0.03351882,10.07958889,-0.00745685,0.01278317,0.00532632
1704701995032869,0.06703765,0.04788403,10.08916569,-0.01171791,0.00639159,0.00213053
1704701995034926,0.09576806,0.03351882,10.09395409,0.00852212,0.00639159,0.00426106
1704701995036869,0.08140286,0.05267244,10.07480049,0.01384844,0.00958738,0.00532632
1704701995038948,0.08140286,0.04788403,10.09874249,-0.00106526,0.00319579,0.00319579
1704701995040864,0.10534488,0.03830723,10.08437729,0.00213053,0.00319579,0.00319579
1704701995042886,0.07182605,0.06224924,10.07958889,0.00958738,-0.00639159,0.00426106
1704701995044905,0.10534488,0.04788403,10.08916569,0.00745685,-0.00213053,0.00319579
1704701995046897,0.07661445,0.06703765,10.07001209,0.01171791,-0.00319579,-0.00319579
1704701995048890,0.08619126,0.06703765,10.08437729,0.01065264,-0.00745685,-0.00106526
1704701995051071,0.11492168,0.04788403,10.07001209,0.00319579,-0.02769688,-0.00426106
1704701995052883,0.08619126,0.07661445,10.07001209,0.00532632,-0.02450108,-0.00319579
1704701995054896,0.11013328,0.06703765,10.07480049,0.01065264,-0.02876214,-0.00745685
1704701995056883,0.09576806,0.05267244,10.04607010,0.00852212,-0.02556635,-0.01278317
1704701995058892,0.08619126,0.08140286,10.04607010,0.00852212,-0.02450108,-0.01597897
1704701995060891,0.11971009,0.06224924,10.04607010,0.00426106,-0.02982740,-0.01065264
1704701995062884,0.09097967,0.06224924,10.01733971,0.01597897,-0.03089267,-0.00532632
1704701995064882,0.10534488,0.08140286,10.02212811,0.01810949,-0.04154531,-0.00958738
1704701995066901,0.10534488,0.05267244,9.99818611,0.01810949,-0.03515373,-0.01171791
1704701995068901,0.08619126,0.08619126,9.98382092,0.00532632,-0.04261058,-0.00213053
1704701995070849,0.11492168,0.07182605,9.98382092,0.00745685,-0.03834952,-0.00319579
1704701995073004,0.09576806,0.05746084,9.95030212,0.02982740,-0.04474111,-0.00958738
1704701995074860,0.10055647,0.09576806,9.94551373,0.04048005,-0.04900216,-0.00852212
1704701995076905,0.10534488,0.05746084,9.93593693,0.02663161,-0.04048005,-0.00639159
1704701995078908,0.09576806,0.08140286,9.91199493,0.01597897,-0.04367584,-0.00745685
1704701995080877,0.10534488,0.08619126,9.91678333,0.01917476,-0.04367584,-0.00639159
1704701995082848,0.10055647,0.05267244,9.89284134,0.02237055,-0.03834952,0.00106526
1704701995085051,0.10055647,0.10055647,9.87847614,0.01491370,-0.04048005,0.00319579
1704701995086908,0.10055647,0.06224924,9.87847614,0.00639159,-0.04048005,-0.00426106
1704701995088989,0.10534488,0.06703765,9.84974575,0.00319579,-0.03728426,-0.00958738
1704701995090967,0.09576806,0.06224924,9.84974575,0.01597897,-0.04048005,-0.00106526
1704701995092896,0.10055647,0.04788403,9.84016895,0.01597897,-0.04687164,0.00106526
1704701995094917,0.09576806,0.08140286,9.81143856,0.01278317,-0.04261058,-0.00213053
1704701995096925,0.09097967,0.06224924,9.82101536,0.00319579,-0.03195793,-0.00426106
1704701995098886,0.09576806,0.05267244,9.79707336,0.00426106,-0.02876214,-0.00319579
1704701995100875,0.09097967,0.07661445,9.78270817,-0.00532632,-0.04367584,-0.00426106
1704701995102888,0.09097967,0.04309563,9.78749657,-0.00745685,-0.05113269,-0.00319579
1704701995104908,0.09576806,0.05746084,9.75876617,-0.00958738,-0.03621899,-0.00319579
1704701995106905,0.08140286,0.05746084,9.76834297,-0.01491370,-0.02024002,-0.00213053
1704701995108891,0.09097967,0.03830723,9.74918938,-0.01171791,-0.01704423,-0.00852212
1704701995110887,0.08140286,0.06703765,9.72524738,-0.00639159,-0.02343582,-0.01065264
1704701995112894,0.07661445,0.04788403,9.73961258,-0.01065264,-0.01810949,-0.00532632
1704701995114875,0.08140286,0.05267244,9.72045898,-0.00958738,-0.00639159,-0.00319579
1704701995116908,0.06703765,0.06224924,9.72045898,-0.00639159,0.00000000,0.00106526
1704701995118907,0.07182605,0.04788403,9.72045898,-0.00213053,-0.00639159,0.00852212
1704701995120862,0.07182605,0.06224924,9.69172859,0.00106526,-0.00213053,0.00213053
1704701995122901,0.06224924,0.05746084,9.70609379,-0.01278317,0.00639159,0.00426106
1704701995124895,0.07182605,0.05267244,9.70130539,-0.01171791,0.00000000,0.00319579
1704701995126815,0.05746084,0.06224924,9.69172859,0.00213053,-0.00213053,0.00426106
1704701995128942,0.06224924,0.05746084,9.69651699,0.02024002,0.00852212,0.00000000
1704701995130881,0.06224924,0.06224924,9.68215179,0.01491370,0.00532632,0.00000000
1704701995132990,0.04788403,0.06703765,9.69172859,0.00639159,-0.00106526,-0.00106526
1704701995134927,0.06224924,0.06224924,9.68694019,0.02024002,0.00213053,0.00213053
1704701995136912,0.05267244,0.06224924,9.68215179,0.02450108,0.00319579,-0.00426106
1704701995138922,0.05267244,0.07661445,9.69172859,0.02130529,0.00319579,-0.01491370
1704701995140838,0.06224924,0.07182605,9.69172859,0.01917476,0.00852212,-0.01917476
1704701995142871,0.04788403,0.07182605,9.68215179,0.01384844,0.00319579,-0.01491370
1704701995144965,0.05746084,0.08140286,9.69651699,0.01065264,0.00000000,-0.01917476
1704701995146922,0.05267244,0.06703765,9.68694019,0.01278317,-0.00532632,-0.01597897
1704701995148881,0.05267244,0.08140286,9.68694019,0.02663161,-0.00213053,-0.01384844
1704701995150874,0.06224924,0.07182605,9.69651699,0.02130529,0.00958738,-0.02556635
1704701995152888,0.05746084,0.06703765,9.68694019,0.01704423,0.00958738,-0.03302320
1704701995154898,0.06703765,0.08619126,9.69651699,0.03408846,-0.00958738,-0.02237055
1704701995156918,0.06703765,0.06224924,9.70130539,0.04900216,-0.00532632,-0.02237055
1704701995158873,0.06703765,0.07661445,9.68694019,0.04900216,0.00213053,-0.01704423
1704701995160925,0.07661445,0.07661445,9.70609379,0.03834952,0.00639159,-0.01810949
1704701995162931,0.07182605,0.05746084,9.70609379,0.04580637,0.00213053,-0.01810949
1704701995164855,0.07661445,0.07661445,9.70609379,0.05965481,0.00000000,-0.01810949
1704701995166895,0.07661445,0.05267244,9.72524738,0.05219796,-0.00106526,-0.01917476
1704701995168931,0.07182605,0.06224924,9.71567059,0.02982740,-0.00213053,-0.01491370
1704701995170943,0.07661445,0.07182605,9.73003578,0.03515373,0.00319579,-0.00958738
1704701995172962,0.08140286,0.05267244,9.72524738,0.03834952,-0.00532632,-0.01171791
1704701995174894,0.08619126,0.06703765,9.72045898,0.03302320,-0.00958738,-0.01384844
1704701995176916,0.08140286,0.05267244,9.74918938,0.03302320,-0.00852212,-0.00639159
1704701995178917,0.08140286,0.04309563,9.74440098,0.04793690,-0.00319579,-0.00106526
1704701995180885,0.08140286,0.06224924,9.74440098,0.04261058,0.00319579,-0.00852212
1704701995182877,0.08140286,0.03830723,9.76355457,0.03302320,0.00106526,-0.00745685
1704701995184912,0.08619126,0.05746084,9.73961258,0.04367584,-0.00639159,-0.00958738
1704701995186949,0.08140286,0.05746084,9.76355457,0.05113269,-0.00106526,-0.00532632
1704701995188882,0.08140286,0.04309563,9.76834297,0.04154531,0.00639159,-0.00532632
1704701995190866,0.08619126,0.06703765,9.75876617,0.02343582,0.00106526,0.00639159
1704701995192913,0.07661445,0.05267244,9.78270817,0.03089267,-0.00106526,0.00745685
1704701995194944,0.08140286,0.05746084,9.76834297,0.03834952,0.00319579,-0.00319579
1704701995196877,0.08140286,0.05746084,9.76834297,0.02450108,0.00213053,-0.01384844
1704701995198911,0.08140286,0.04788403,9.78270817,0.00958738,-0.00426106,-0.00426106
1704701995200884,0.08619126,0.06224924,9.77313137,0.02556635,0.00106526,0.00319579
1704701995202881,0.08140286,0.04788403,9.78749657,0.04154531,0.00852212,0.00106526
1704701995204906,0.09097967,0.05746084,9.78270817,0.03408846,0.00106526,0.00319579
1704701995206893,0.09097967,0.06224924,9.77791977,0.01810949,0.00106526,0.00213053
1704701995208883,0.09097967,0.05267244,9.79707336,0.01597897,0.00213053,0.00106526
1704701995210896,0.09576806,0.05746084,9.78749657,0.01491370,0.00958738,-0.00532632
1704701995212915,0.09097967,0.05746084,9.79228497,0.00213053,0.00532632,-0.00426106
1704701995215116,0.09576806,0.06224924,9.80665016,0.00106526,-0.00213053,-0.00532632
1704701995216905,0.09576806,0.05746084,9.80186176,0.01065264,0.01065264,0.00106526
1704701995218922,0.09576806,0.05746084,9.81143856,0.00426106,0.01278317,0.00426106
1704701995220876,0.10055647,0.06224924,9.81622696,-0.00106526,0.00532632,0.00745685
1704701995222882,0.09576806,0.05746084,9.81622696,-0.00532632,0.00106526,0.00426106
1704701995224869,0.10055647,0.05746084,9.82580376,-0.00958738,0.01704423,0.00426106
1704701995226909,0.09576806,0.05267244,9.82580376,-0.00745685,0.01278317,0.00213053
1704701995228891,0.10055647,0.05746084,9.82580376,-0.01810949,-0.00319579,0.00426106
1704701995230876,0.10055647,0.05267244,9.84016895,-0.02769688,0.00426106,0.00319579
1704701995232936,0.09097967,0.04309563,9.84016895,-0.01704423,0.00532632,-0.00213053
1704701995234910,0.09576806,0.04788403,9.84495735,-0.01171791,0.00213053,-0.00106526
1704701995236956,0.09097967,0.03830723,9.84974575,-0.01810949,0.00745685,0.00319579
1704701995238894,0.09576806,0.04309563,9.84974575,-0.01704423,0.00319579,-0.00213053
1704701995240868,0.09576806,0.03830723,9.86889935,-0.01597897,0.00213053,0.00532632
1704701995242879,0.09097967,0.03830723,9.86411095,-0.02130529,0.00319579,0.01384844
1704701995244915,0.10055647,0.04788403,9.86411095,-0.01278317,-0.00319579,0.01278317
1704701995246816,0.09576806,0.03830723,9.88326454,-0.00852212,-0.00213053,0.00106526
1704701995248882,0.10055647,0.04788403,9.87368774,-0.00958738,0.01278317,0.00426106
1704701995250957,0.10534488,0.04788403,9.88326454,-0.00958738,0.00000000,0.01278317
1704701995253023,0.09576806,0.04309563,9.88805294,-0.00426106,-0.01171791,0.00426106
1704701995254906,0.10534488,0.05267244,9.88805294,-0.00532632,0.00745685,-0.00106526
1704701995256881,0.10055647,0.04309563,9.90241814,0.00106526,0.01171791,-0.00213053
1704701995258890,0.10055647,0.05267244,9.88805294,0.00532632,0.00532632,0.00532632
1704701995260868,0.11013328,0.05267244,9.88805294,0.01065264,-0.00106526,0.00106526
1704701995262885,0.09576806,0.04309563,9.90241814,0.01917476,-0.00426106,0.00213053
1704701995264888,0.10534488,0.05746084,9.88326454,0.00852212,-0.00106526,0.00426106
1704701995266872,0.10055647,0.04309563,9.89762974,0.00000000,0.00639159,0.00213053
1704701995268903,0.09576806,0.05267244,9.89762974,0.00000000,0.00426106,0.00106526
1704701995270895,0.10534488,0.05746084,9.89284134,0.00213053,0.00000000,0.00000000
1704701995272867,0.09576806,0.04788403,9.90720654,-0.00532632,0.00319579,0.00106526
1704701995274898,0.09576806,0.05746084,9.89762974,-0.00532632,0.00426106,-0.00426106
1704701995276980,0.09576806,0.04309563,9.90241814,-0.00532632,-0.00106526,0.00000000
1704701995278885,0.08619126,0.04788403,9.91199493,-0.01278317,0.00639159,-0.00958738
1704701995280865,0.09576806,0.04788403,9.89762974,-0.02024002,0.01171791,-0.01597897
1704701995282895,0.09097967,0.04309563,9.90241814,-0.01704423,0.00426106,-0.01278317
1704701995284947,0.08619126,0.05267244,9.90241814,-0.01278317,0.00213053,-0.00852212
1704701995286906,0.09097967,0.04309563,9.89762974,-0.01278317,0.01065264,-0.00852212
1704701995288932,0.08140286,0.05267244,9.90241814,-0.01171791,0.01384844,-0.00639159
1704701995290819,0.08619126,0.05746084,9.89284134,-0.00213053,0.00639159,-0.01065264
1704701995292883,0.09097967,0.04788403,9.88326454,-0.00319579,0.00426106,-0.01491370
1704701995294924,0.08140286,0.06224924,9.88805294,-0.00319579,0.00532632,-0.01384844
1704701995296899,0.09097967,0.05267244,9.87847614,0.00000000,0.00426106,-0.00532632
1704701995298892,0.09097967,0.05267244,9.87368774,-0.00319579,0.00532632,-0.00852212
1704701995300861,0.08619126,0.05746084,9.87368774,-0.00106526,0.00852212,-0.01384844
1704701995302928,0.09576806,0.05267244,9.85932255,-0.00745685,0.00852212,-0.01384844
1704701995304909,0.08619126,0.05746084,9.86411095,-0.00745685,-0.00319579,-0.00958738
1704701995306899,0.09097967,0.05267244,9.85453415,-0.00532632,-0.00639159,-0.01384844
1704701995308900,0.09097967,0.05746084,9.84495735,0.00745685,-0.00532632,-0.01917476
1704701995310857,0.08619126,0.05746084,9.85453415,0.00000000,0.00106526,-0.01491370
1704701995312977,0.09576806,0.05267244,9.83059216,-0.01171791,-0.00319579,-0.00745685
1704701995314872,0.09576806,0.05746084,9.83538055,-0.01278317,-0.00319579,-0.00958738
1704701995316966,0.09097967,0.05267244,9.84016895,0.00000000,0.00426106,-0.00958738
1704701995318924,0.10055647,0.05746084,9.81622696,0.00532632,0.00852212,-0.00319579
1704701995320910,0.09576806,0.05746084,9.83059216,0.00426106,0.00213053,-0.01171791
1704701995322882,0.10055647,0.05746084,9.81622696,0.00319579,-0.00213053,-0.02130529
1704701995324888,0.10534488,0.05746084,9.81143856,0.00745685,0.00639159,-0.01278317
1704701995326940,0.10055647,0.05267244,9.82101536,0.00319579,0.00852212,-0.00532632
1704701995328872,0.10534488,0.05746084,9.80186176,-0.00106526,0.00426106,-0.00639159
1704701995330865,0.10534488,0.04788403,9.81143856,-0.00639159,0.01065264,-0.00958738
1704701995332860,0.10055647,0.05267244,9.81143856,-0.00958738,0.01491370,-0.00852212
1704701995335242,0.11492168,0.05267244,9.80186176,-0.01704423,0.00852212,-0.00426106
1704701995336927,0.10055647,0.05267244,9.81622696,-0.00106526,0.00532632,0.00532632
1704701995338952,0.10055647,0.05267244,9.80665016,0.00426106,0.00852212,0.00958738
1704701995340862,0.10534488,0.04309563,9.80665016,0.00639159,0.00745685,0.00852212
1704701995342877,0.10055647,0.05267244,9.81143856,0.00000000,0.00426106,0.01278317
1704701995344929,0.11013328,0.05267244,9.80186176,-0.01171791,0.00426106,0.00639159
1704701995346935,0.11013328,0.04309563,9.80665016,-0.01171791,0.00106526,0.01065264
1704701995348885,0.10055647,0.05267244,9.80186176,-0.00639159,0.00426106,0.01810949
1704701995350872,0.11013328,0.04309563,9.79707336,-0.00532632,0.00639159,0.00852212
1704701995352943,0.10534488,0.04309563,9.80186176,-0.00958738,0.00639159,-0.00213053
1704701995354921,0.10534488,0.04788403,9.79228497,-0.01171791,0.00639159,0.00639159
1704701995356983,0.11492168,0.03830723,9.79228497,0.00000000,0.00000000,0.00958738
1704701995358883,0.10055647,0.04788403,9.79228497,0.00319579,0.00426106,0.00213053
1704701995360986,0.10534488,0.04309563,9.78749657,0.00000000,0.00958738,0.00745685
1704701995362934,0.10534488,0.04788403,9.78270817,0.00745685,0.00852212,0.01171791
1704701995364901,0.09576806,0.06224924,9.78749657,0.01597897,0.00000000,0.01278317
1704701995366886,0.10534488,0.05267244,9.77313137,0.02556635,0.00106526,0.01384844
1704701995368931,0.09576806,0.06703765,9.77313137,0.02663161,0.01065264,0.00745685
1704701995371027,0.10055647,0.07182605,9.77791977,0.03195793,0.00426106,0.00426106
1704701995372831,0.10534488,0.07661445,9.75876617,0.03621899,0.00532632,0.00852212
1704701995374888,0.10055647,0.08619126,9.76355457,0.03834952,0.00958738,0.00106526
1704701995376941,0.11013328,0.08140286,9.75397778,0.03834952,0.00745685,-0.00319579
1704701995379248,0.10534488,0.09097967,9.74440098,0.02982740,0.00319579,-0.00213053
1704701995380845,0.11013328,0.09097967,9.74440098,0.03834952,0.01597897,-0.00745685
1704701995382892,0.11492168,0.09576806,9.73003578,0.04261058,0.01384844,-0.00958738
1704701995384952,0.10534488,0.09576806,9.73482418,0.04367584,0.00106526,-0.00745685
1704701995386900,0.11013328,0.10055647,9.73482418,0.03728426,-0.00106526,-0.01065264
1704701995388906,0.11492168,0.10055647,9.72524738,0.04580637,-0.00852212,-0.01491370
1704701995390862,0.11013328,0.09576806,9.73961258,0.05113269,-0.01171791,-0.02024002
1704701995392937,0.11971009,0.09576806,9.72045898,0.03941479,-0.00852212,-0.01278317
1704701995394918,0.11492168,0.09097967,9.73003578,0.03408846,-0.01917476,-0.01810949
1704701995396898,0.11492168,0.08619126,9.73961258,0.03089267,-0.03302320,-0.01384844
1704701995398853,0.11971009,0.08140286,9.72524738,0.02556635,-0.02237055,-0.02024002
1704701995400863,0.11492168,0.07182605,9.74440098,0.02130529,-0.02130529,-0.01065264
1704701995402905,0.11492168,0.07182605,9.73961258,0.01384844,-0.04048005,-0.01278317
1704701995404886,0.11492168,0.06224924,9.73961258,0.00532632,-0.03728426,-0.01065264
1704701995406871,0.11492168,0.05746084,9.75397778,0.01171791,-0.02663161,-0.01810949
1704701995408897,0.11013328,0.05746084,9.74440098,0.00426106,-0.03621899,-0.01491370
1704701995410813,0.11971009,0.04309563,9.74918938,-0.00745685,-0.04687164,-0.01491370
1704701995412898,0.11013328,0.04788403,9.75876617,-0.00213053,-0.03621899,-0.01171791
1704701995414988,0.10534488,0.03830723,9.75397778,-0.00106526,-0.03089267,-0.01917476
1704701995416956,0.11013328,0.04309563,9.75876617,-0.00319579,-0.03408846,-0.01491370
1704701995419045,0.10055647,0.04788403,9.75876617,0.00639159,-0.03515373,-0.01704423
1704701995420874,0.10534488,0.03830723,9.75397778,0.01065264,-0.04048005,-0.01491370
1704701995422886,0.10534488,0.04788403,9.75397778,0.01278317,-0.03195793,-0.01491370
1704701995424867,0.09576806,0.04788403,9.74918938,0.00213053,-0.02769688,-0.00639159
1704701995426945,0.11013328,0.04309563,9.74440098,0.00532632,-0.03621899,-0.00852212
1704701995428913,0.10055647,0.04788403,9.74918938,0.00532632,-0.03515373,-0.01171791
1704701995430874,0.11013328,0.04788403,9.73961258,-0.00852212,-0.03195793,-0.00958738
1704701995432960,0.11492168,0.05267244,9.73003578,-0.01491370,-0.04474111,-0.00852212
1704701995434939,0.10534488,0.05267244,9.73961258,-0.00639159,-0.04900216,-0.01278317
1704701995437040,0.11971009,0.05267244,9.72524738,-0.00852212,-0.02876214,-0.01384844
1704701995438897,0.11492168,0.04788403,9.72524738,-0.01384844,-0.02663161,-0.01491370
1704701995440945,0.11971009,0.05267244,9.72524738,-0.02237055,-0.03834952,-0.00532632
1704701995442948,0.12928689,0.04788403,9.70609379,-0.01810949,-0.03302320,0.00213053
1704701995444988,0.11492168,0.04309563,9.72045898,-0.01810949,-0.02237055,0.00426106
1704701995446931,0.12449849,0.05267244,9.70609379,-0.00745685,-0.02024002,-0.00106526
1704701995448863,0.11492168,0.04788403,9.69651699,0.00106526,-0.02237055,0.00106526
1704701995450963,0.11492168,0.05267244,9.70609379,0.01384844,-0.01171791,-0.00213053
