timestamp,accel_x,accel_y,accel_z,gyro_x,gyro_y,gyro_z
1704701147021621,-0.00957681,-0.03351882,9.88805294,0.02663161,-0.02237055,0.00852212
1704701147023673,-0.01436521,-0.04309563,9.88326454,0.02237055,-0.02556635,0.00532632
1704701147025591,-0.01915361,-0.04788403,9.88326454,0.02343582,-0.03515373,-0.00958738
1704701147027539,-0.02394202,-0.04309563,9.88805294,0.02556635,-0.03728426,-0.02556635
1704701147029586,-0.02873042,-0.03830723,9.88805294,0.03089267,-0.03302320,-0.01597897
1704701147031605,-0.02394202,-0.03351882,9.89284134,0.02663161,-0.02343582,-0.00852212
1704701147033583,-0.02394202,-0.04309563,9.89284134,0.02663161,-0.01704423,0.00532632
1704701147035561,-0.02394202,-0.04309563,9.89762974,0.02130529,-0.02450108,0.01278317
1704701147037538,-0.02873042,-0.04309563,9.89762974,0.01810949,-0.03408846,-0.00106526
1704701147039588,-0.02873042,-0.03351882,9.90241814,0.02237055,-0.03728426,-0.01065264
1704701147041572,-0.02394202,-0.02873042,9.90241814,0.02237055,-0.02982740,-0.01704423
1704701147043545,-0.00957681,-0.02873042,9.90241814,0.02556635,-0.01384844,-0.00852212
1704701147045600,-0.00478840,-0.02873042,9.90241814,0.02237055,-0.00852212,0.00958738
1704701147047569,-0.00478840,-0.02394202,9.91199493,0.01810949,-0.01491370,0.00852212
1704701147049562,-0.00478840,-0.01915361,9.91678333,0.01917476,-0.02450108,-0.00426106
1704701147051566,-0.00478840,-0.01915361,9.92157173,0.01810949,-0.02769688,-0.02450108
1704701147053541,0.00478840,-0.01436521,9.91678333,0.01704423,-0.01917476,-0.02769688
1704701147055633,0.00957681,-0.01436521,9.91678333,0.01384844,-0.00852212,-0.01278317
1704701147057550,0.01436521,-0.00957681,9.92157173,0.01704423,-0.00319579,0.00639159
1704701147059570,0.00957681,-0.00478840,9.92636013,0.01810949,-0.00745685,0.00958738
1704701147061560,0.00957681,0.00000000,9.93593693,0.01171791,-0.01917476,-0.00532632
1704701147063727,0.00957681,0.00000000,9.93114853,0.00319579,-0.02024002,-0.01384844
1704701147065547,0.01915361,0.00000000,9.93114853,0.00532632,-0.01917476,-0.01704423
1704701147067573,0.01915361,0.00957681,9.93114853,0.01278317,-0.00958738,-0.00639159
1704701147069545,0.01915361,0.01436521,9.93593693,0.01597897,-0.00319579,0.01278317
1704701147071574,0.01436521,0.01436521,9.94072533,0.01384844,-0.01065264,0.01491370
1704701147073609,0.01436521,0.00957681,9.94072533,0.00319579,-0.01597897,-0.00426106
1704701147075606,0.01915361,0.00957681,9.94072533,0.00000000,-0.02130529,-0.02130529
1704701147077527,0.01915361,0.00957681,9.94072533,0.00426106,-0.02343582,-0.02556635
1704701147079574,0.01436521,0.01436521,9.94072533,0.01065264,-0.02130529,-0.01278317
1704701147081610,0.00957681,0.01915361,9.93593693,0.01384844,-0.01491370,0.01065264
1704701147083572,0.00957681,0.00957681,9.93593693,0.01065264,-0.01171791,0.00958738
1704701147085586,0.00957681,0.00000000,9.93593693,0.00852212,-0.01704423,-0.00745685
1704701147087522,0.00478840,0.00000000,9.93593693,0.00639159,-0.02663161,-0.02663161
1704701147089590,0.00000000,0.00000000,9.94072533,0.01278317,-0.03302320,-0.02876214
1704701147091598,-0.00478840,0.00478840,9.93593693,0.01704423,-0.02769688,-0.00852212
1704701147093555,-0.00478840,0.00000000,9.93593693,0.01704423,-0.01917476,0.01171791
1704701147095551,-0.00478840,-0.00478840,9.93114853,0.01384844,-0.01384844,0.01384844
1704701147097583,-0.00478840,-0.01915361,9.93593693,0.01278317,-0.01704423,0.00000000
1704701147099656,-0.00957681,-0.01436521,9.94072533,0.01278317,-0.02663161,-0.02130529
1704701147101541,-0.01436521,-0.00957681,9.94072533,0.01597897,-0.03302320,-0.02130529
1704701147103598,-0.01436521,-0.01436521,9.93593693,0.02130529,-0.03089267,-0.00639159
1704701147105628,-0.01436521,-0.02394202,9.92636013,0.01917476,-0.02237055,0.00426106
1704701147107520,-0.00957681,-0.02873042,9.92636013,0.01810949,-0.01491370,0.00852212
1704701147109579,-0.01436521,-0.02873042,9.93114853,0.01810949,-0.01597897,0.00000000
1704701147111554,-0.01436521,-0.02394202,9.93593693,0.01384844,-0.02130529,-0.01704423
1704701147113601,-0.00957681,-0.02394202,9.94072533,0.01491370,-0.02450108,-0.02769688
1704701147115601,-0.00957681,-0.02873042,9.93593693,0.01810949,-0.02556635,-0.02237055
1704701147117563,-0.00957681,-0.03351882,9.92636013,0.02130529,-0.01917476,-0.00426106
1704701147119547,-0.00957681,-0.03351882,9.92157173,0.02876214,-0.01597897,0.01065264
1704701147121621,-0.00957681,-0.03351882,9.93114853,0.02024002,-0.01384844,0.00426106
1704701147123612,-0.00957681,-0.02873042,9.93114853,0.01597897,-0.01384844,-0.00532632
1704701147125553,-0.00478840,-0.02873042,9.93114853,0.01491370,-0.01597897,-0.02450108
1704701147127540,-0.00478840,-0.03351882,9.93114853,0.02130529,-0.01704423,-0.01171791
1704701147129603,-0.00478840,-0.03351882,9.92636013,0.02237055,-0.02130529,0.00106526
1704701147131611,-0.00478840,-0.02873042,9.92636013,0.02450108,-0.02024002,0.00745685
1704701147133640,-0.00478840,-0.02873042,9.92636013,0.01810949,-0.01491370,0.00319579
1704701147135549,0.00000000,-0.02873042,9.92636013,0.01171791,-0.01065264,-0.01171791
1704701147137534,0.00478840,-0.02873042,9.93114853,0.01278317,-0.00852212,-0.02450108
1704701147139683,0.00478840,-0.02394202,9.93114853,0.02237055,-0.02343582,-0.01917476
1704701147141569,0.00000000,-0.02394202,9.93114853,0.02876214,-0.02556635,-0.01171791
1704701147143546,0.00000000,-0.01915361,9.93114853,0.02876214,-0.02556635,0.00000000
1704701147145552,0.00478840,-0.02873042,9.92636013,0.01384844,-0.01597897,0.00745685
1704701147147586,0.00957681,-0.02394202,9.92636013,0.00958738,-0.00958738,-0.00426106
1704701147149583,0.00478840,-0.02394202,9.93114853,0.00958738,-0.00958738,-0.01597897
1704701147151593,0.00000000,-0.01436521,9.93593693,0.01704423,-0.01810949,-0.01597897
1704701147153547,-0.00478840,-0.01436521,9.93593693,0.02450108,-0.02769688,-0.00745685
1704701147155597,-0.00478840,-0.01915361,9.92636013,0.02130529,-0.03302320,0.00426106
1704701147157573,0.00000000,-0.01915361,9.92157173,0.01917476,-0.02237055,-0.00426106
1704701147159583,0.00000000,-0.01915361,9.92157173,0.01065264,-0.01597897,-0.00426106
1704701147161538,-0.00478840,-0.00957681,9.92636013,0.01171791,-0.01704423,-0.01384844
1704701147163635,-0.00957681,-0.00478840,9.93114853,0.01917476,-0.02663161,-0.01597897
1704701147165613,-0.00957681,-0.00478840,9.92636013,0.02343582,-0.03089267,-0.00852212
1704701147167579,-0.00957681,-0.01436521,9.91678333,0.02769688,-0.03621899,-0.00426106
1704701147169558,-0.00957681,-0.00957681,9.91199493,0.01917476,-0.03089267,-0.00213053
1704701147171611,-0.00957681,-0.00478840,9.91678333,0.01278317,-0.02450108,0.00000000
1704701147173555,-0.00957681,-0.00478840,9.91678333,0.00639159,-0.01704423,-0.00426106
1704701147175627,-0.00957681,0.00000000,9.92157173,0.00532632,-0.01597897,-0.00852212
1704701147177538,-0.00957681,-0.00478840,9.91678333,0.01065264,-0.02024002,-0.01065264
1704701147179552,-0.00957681,-0.00957681,9.91199493,0.02024002,-0.02556635,-0.01704423
1704701147181646,-0.00957681,-0.00957681,9.90720654,0.01597897,-0.02556635,0.00213053
1704701147183618,-0.00957681,0.00000000,9.90720654,0.01065264,-0.02343582,0.00319579
1704701147185543,-0.00478840,0.00000000,9.90720654,0.00532632,-0.01171791,-0.00213053
1704701147187567,0.00000000,-0.00478840,9.90720654,0.00000000,-0.00745685,-0.00745685
1704701147189625,0.00000000,-0.00957681,9.90720654,0.01278317,-0.01171791,-0.01491370
1704701147191545,0.00000000,-0.00957681,9.90720654,0.02343582,-0.02556635,-0.01597897
1704701147193608,0.00000000,-0.00957681,9.90241814,0.02982740,-0.02663161,-0.01278317
1704701147195558,0.00000000,-0.00478840,9.90241814,0.01917476,-0.02024002,-0.00532632
1704701147197566,0.00957681,-0.01436521,9.90241814,0.00532632,-0.00426106,0.00426106
1704701147199630,0.01436521,-0.01915361,9.89762974,-0.00106526,0.00000000,-0.00106526
1704701147201562,0.00478840,-0.01915361,9.90241814,0.00639159,-0.01065264,-0.00745685
1704701147203637,0.00000000,-0.01436521,9.90241814,0.01917476,-0.02663161,-0.01171791
1704701147205635,0.00000000,-0.01436521,9.89762974,0.02450108,-0.03089267,-0.01491370
1704701147207558,0.00000000,-0.01436521,9.89284134,0.02024002,-0.01917476,-0.00319579
1704701147209545,0.00478840,-0.02394202,9.88805294,0.00958738,-0.00745685,0.00639159
1704701147211580,0.00478840,-0.02394202,9.89284134,0.00958738,-0.00639159,-0.00319579
1704701147213648,0.00000000,-0.02394202,9.89284134,0.01171791,-0.01491370,-0.00639159
1704701147215645,-0.00957681,-0.02394202,9.89762974,0.02556635,-0.02876214,-0.01384844
1704701147217584,-0.00957681,-0.02873042,9.89284134,0.02982740,-0.03089267,-0.01810949
1704701147219598,-0.00478840,-0.02873042,9.88805294,0.02450108,-0.02343582,-0.01491370
1704701147221629,-0.00957681,-0.03351882,9.88805294,0.01278317,-0.01278317,-0.00213053
1704701147223618,-0.00957681,-0.03351882,9.89284134,0.00958738,-0.01065264,0.00319579
1704701147225598,-0.01915361,-0.02873042,9.89762974,0.01491370,-0.01810949,0.00745685
1704701147227533,-0.01915361,-0.03351882,9.89284134,0.02450108,-0.02769688,-0.01065264
1704701147229589,-0.01915361,-0.03351882,9.89284134,0.03621899,-0.03195793,-0.02982740
1704701147231629,-0.01915361,-0.03830723,9.88805294,0.03621899,-0.02982740,-0.01810949
1704701147233583,-0.01436521,-0.02873042,9.89284134,0.03089267,-0.02130529,0.00000000
1704701147235581,-0.01915361,-0.02873042,9.89284134,0.01278317,-0.01810949,0.01491370
1704701147237562,-0.01436521,-0.02873042,9.89284134,0.01065264,-0.01810949,0.00852212
1704701147239622,-0.01436521,-0.03351882,9.89284134,0.02130529,-0.02556635,-0.01171791
1704701147241615,-0.01436521,-0.02873042,9.89284134,0.03621899,-0.02982740,-0.02663161
1704701147243550,-0.01436521,-0.02394202,9.89762974,0.03834952,-0.02769688,-0.02130529
1704701147245578,-0.01436521,-0.01436521,9.89762974,0.02556635,-0.02450108,-0.00426106
1704701147247592,-0.00957681,-0.01436521,9.90241814,0.00852212,-0.01491370,0.00852212
1704701147249581,-0.00478840,-0.01915361,9.90241814,0.00106526,-0.01597897,0.01491370
1704701147251573,0.00000000,-0.01436521,9.90241814,0.00852212,-0.01917476,-0.00745685
1704701147253606,-0.00478840,-0.00957681,9.90241814,0.02343582,-0.02876214,-0.02237055
1704701147255673,-0.00478840,0.00000000,9.90720654,0.03302320,-0.03089267,-0.02237055
1704701147257619,0.00000000,-0.00478840,9.90241814,0.02343582,-0.02130529,-0.00639159
1704701147259653,0.00957681,-0.00478840,9.89762974,0.00426106,-0.00958738,0.01491370
1704701147261690,0.00957681,-0.01436521,9.89284134,-0.00319579,-0.00852212,0.01384844
1704701147263610,0.00957681,-0.00957681,9.89284134,0.00426106,-0.01810949,-0.00319579
1704701147265603,0.00478840,-0.00957681,9.89762974,0.01917476,-0.02769688,-0.02663161
1704701147267557,0.00957681,0.00000000,9.89284134,0.02343582,-0.02663161,-0.02982740
1704701147269549,0.01436521,-0.00478840,9.89284134,0.02343582,-0.01384844,-0.01278317
1704701147271642,0.01915361,-0.00957681,9.88326454,0.00745685,-0.00639159,0.00958738
1704701147273598,0.01915361,-0.01436521,9.88326454,0.00106526,-0.00852212,0.01384844
1704701147275566,0.00957681,-0.00957681,9.88326454,0.00000000,-0.01810949,0.00426106
1704701147277561,0.00957681,-0.00478840,9.88805294,0.01704423,-0.02663161,-0.02130529
1704701147279609,0.00957681,-0.00478840,9.88326454,0.02663161,-0.02450108,-0.03089267
1704701147281615,0.01436521,-0.00478840,9.87847614,0.02450108,-0.01491370,-0.02237055
1704701147283625,0.00957681,-0.00957681,9.87847614,0.00852212,-0.01065264,0.01384844
1704701147285581,0.00478840,-0.00957681,9.88326454,0.00000000,-0.01491370,0.02130529
1704701147287599,0.00000000,-0.00478840,9.88805294,-0.00426106,-0.02450108,0.01171791
1704701147289620,0.00000000,-0.00478840,9.88805294,0.00319579,-0.02663161,-0.01704423
1704701147291583,-0.00478840,-0.00957681,9.88805294,0.01917476,-0.02343582,-0.03302320
1704701147293607,0.00000000,-0.00957681,9.88805294,0.02450108,-0.01810949,-0.02237055
1704701147295565,-0.00478840,-0.00957681,9.89284134,0.01810949,-0.02024002,0.00106526
1704701147297611,-0.00957681,-0.00957681,9.89284134,0.00958738,-0.02237055,0.01704423
1704701147299593,-0.00957681,-0.00957681,9.88805294,-0.00106526,-0.02556635,0.01065264
1704701147301572,-0.00957681,-0.01436521,9.88805294,0.00106526,-0.02876214,-0.00745685
1704701147303589,-0.00957681,-0.01436521,9.88805294,0.01704423,-0.02663161,-0.02343582
1704701147305675,-0.00957681,-0.00957681,9.88805294,0.03195793,-0.02450108,-0.02663161
1704701147307582,-0.01436521,-0.00957681,9.88805294,0.03195793,-0.02024002,-0.00213053
1704701147309592,-0.00957681,-0.01436521,9.88326454,0.01491370,-0.01917476,0.01491370
1704701147311602,-0.00478840,-0.02394202,9.87847614,0.00106526,-0.02130529,0.01171791
1704701147313683,-0.00478840,-0.02394202,9.87368774,0.00426106,-0.02343582,-0.00958738
1704701147315619,-0.00478840,-0.01915361,9.87847614,0.01597897,-0.02769688,-0.02663161
1704701147317559,-0.00478840,-0.01436521,9.87847614,0.03195793,-0.02237055,-0.02450108
1704701147319599,0.00000000,-0.01915361,9.87847614,0.03089267,-0.01491370,-0.00852212
1704701147321618,0.00478840,-0.03351882,9.86889935,0.02343582,-0.01171791,0.00319579
1704701147323625,0.00478840,-0.03830723,9.86889935,0.00745685,-0.01491370,0.00639159
1704701147325614,0.00000000,-0.03351882,9.87368774,0.00319579,-0.02343582,0.00000000
1704701147327553,0.00000000,-0.02873042,9.87847614,0.01278317,-0.02450108,-0.01278317
1704701147329690,0.00000000,-0.02873042,9.87847614,0.02982740,-0.01917476,-0.02024002
1704701147331692,0.00478840,-0.02873042,9.87368774,0.03515373,-0.01384844,-0.01810949
1704701147333592,0.00478840,-0.03830723,9.86889935,0.02130529,-0.01171791,-0.00319579
1704701147335561,0.00478840,-0.03830723,9.86889935,0.00639159,-0.01597897,0.01171791
1704701147337563,0.00000000,-0.02873042,9.87368774,0.00000000,-0.02343582,0.00639159
1704701147339671,0.00000000,-0.02394202,9.87368774,0.01171791,-0.02343582,-0.01278317
1704701147341626,0.00478840,-0.02394202,9.87368774,0.02556635,-0.01384844,-0.02130529
1704701147343632,0.00478840,-0.02873042,9.86889935,0.03195793,-0.00639159,-0.01704423
1704701147345561,0.00000000,-0.02873042,9.87368774,0.02982740,-0.01278317,-0.00745685
1704701147347568,0.00000000,-0.02873042,9.87368774,0.01491370,-0.02343582,0.00426106
1704701147349608,-0.00478840,-0.02394202,9.87847614,0.00426106,-0.02982740,0.00213053
1704701147351585,-0.00478840,-0.02394202,9.88326454,0.00319579,-0.02450108,-0.00319579
1704701147353549,-0.00478840,-0.02394202,9.88326454,0.02130529,-0.01917476,-0.01597897
1704701147355620,-0.00957681,-0.02873042,9.88805294,0.03408846,-0.01810949,-0.02237055
1704701147357579,-0.01436521,-0.02873042,9.89284134,0.02663161,-0.01917476,-0.00958738
1704701147359567,-0.01436521,-0.02394202,9.89284134,0.01491370,-0.02556635,0.00426106
1704701147361587,-0.01436521,-0.02394202,9.89284134,-0.00106526,-0.02556635,0.00639159
1704701147363605,-0.01436521,-0.02394202,9.89762974,0.00319579,-0.02343582,-0.00213053
1704701147365620,-0.01436521,-0.02394202,9.89762974,0.02024002,-0.02130529,-0.01171791
1704701147367561,-0.01915361,-0.02394202,9.90241814,0.03302320,-0.02237055,-0.00958738
1704701147369557,-0.01915361,-0.02394202,9.90720654,0.03089267,-0.02450108,-0.01278317
1704701147371569,-0.01436521,-0.01915361,9.90241814,0.01704423,-0.02130529,-0.00958738
1704701147373622,-0.00957681,-0.02394202,9.90241814,0.00319579,-0.01810949,0.00106526
1704701147375582,-0.00478840,-0.01915361,9.90720654,0.00106526,-0.02024002,0.00426106
1704701147377532,-0.00478840,-0.01436521,9.91678333,0.01597897,-0.02130529,-0.00213053
1704701147379584,-0.00478840,-0.00957681,9.92157173,0.03089267,-0.02024002,-0.01491370
1704701147381598,0.00000000,-0.01436521,9.92157173,0.03089267,-0.01597897,-0.02343582
1704701147383757,0.00478840,-0.01436521,9.91678333,0.01597897,-0.01384844,-0.01597897
1704701147385574,0.00957681,-0.01436521,9.91678333,-0.00213053,-0.01704423,-0.00213053
1704701147387567,0.00957681,-0.00957681,9.92636013,0.00000000,-0.01704423,0.01065264
1704701147389588,0.00478840,-0.00478840,9.93114853,0.00745685,-0.02237055,0.01278317
1704701147391619,0.00478840,-0.00478840,9.93114853,0.01810949,-0.01917476,-0.00213053
1704701147393570,0.00957681,-0.00957681,9.93114853,0.02130529,-0.00958738,-0.02450108
1704701147395553,0.01436521,-0.01436521,9.93114853,0.01384844,-0.01065264,-0.02876214
1704701147397594,0.01436521,-0.00957681,9.93114853,0.00639159,-0.01597897,-0.00958738
1704701147399575,0.00957681,-0.00478840,9.93593693,0.00000000,-0.01917476,0.01384844
1704701147401506,0.00957681,0.00000000,9.93593693,0.00532632,-0.02237055,0.01597897
1704701147403584,0.00957681,-0.00957681,9.93114853,0.02024002,-0.02024002,-0.01597897
1704701147405663,0.00957681,-0.01436521,9.92636013,0.02556635,-0.01810949,-0.02982740
1704701147407561,0.00957681,-0.01436521,9.93114853,0.02450108,-0.01597897,-0.03195793
1704701147409593,0.00478840,-0.00478840,9.93114853,0.01278317,-0.01491370,-0.00639159
1704701147411558,0.00478840,-0.00478840,9.93593693,0.00426106,-0.02024002,0.01491370
1704701147413613,0.00478840,-0.00957681,9.93593693,0.00745685,-0.02343582,0.01597897
1704701147415605,0.00478840,-0.01436521,9.93114853,0.01810949,-0.02237055,-0.00639159
1704701147417570,0.00000000,-0.01436521,9.92636013,0.02769688,-0.02130529,-0.02024002
1704701147419606,-0.00478840,-0.00957681,9.93114853,0.02876214,-0.02024002,-0.03408846
1704701147421621,-0.00478840,-0.00957681,9.92636013,0.01278317,-0.01810949,-0.00639159
1704701147423629,-0.00478840,-0.00957681,9.92636013,0.00852212,-0.01704423,0.01065264
1704701147425610,-0.00478840,-0.01915361,9.92157173,0.00745685,-0.01917476,0.02450108
1704701147427536,-0.01436521,-0.01915361,9.92636013,0.01917476,-0.02663161,0.00745685
1704701147429599,-0.01915361,-0.01436521,9.92636013,0.03089267,-0.02769688,-0.02982740
1704701147431570,-0.01915361,-0.00957681,9.92636013,0.02876214,-0.02130529,-0.04048005
1704701147433635,-0.01436521,-0.00957681,9.92636013,0.01491370,-0.01384844,-0.02130529
1704701147435581,-0.01436521,-0.01436521,9.92636013,0.00532632,-0.01704423,0.00639159
1704701147437560,-0.01915361,-0.01915361,9.92636013,0.00319579,-0.02663161,0.02237055
1704701147439589,-0.02394202,-0.00957681,9.93114853,0.01278317,-0.03302320,0.00958738
1704701147441614,-0.02873042,-0.01436521,9.93593693,0.02130529,-0.03195793,-0.01491370
1704701147443564,-0.02394202,-0.00957681,9.93114853,0.02450108,-0.02130529,-0.03195793
1704701147445582,-0.01915361,-0.01436521,9.93114853,0.01810949,-0.01384844,-0.02450108
1704701147447609,-0.01915361,-0.01436521,9.92636013,0.01171791,-0.01704423,0.00319579
1704701147449528,-0.02394202,-0.01436521,9.93114853,0.00852212,-0.02876214,0.02876214
1704701147451610,-0.02394202,-0.00957681,9.93114853,0.01171791,-0.03515373,0.02556635
1704701147453593,-0.02394202,-0.01436521,9.93114853,0.01810949,-0.03089267,-0.01278317
1704701147455640,-0.01436521,-0.01436521,9.92636013,0.02237055,-0.01704423,-0.03834952
1704701147457595,-0.00957681,-0.01436521,9.92636013,0.02237055,-0.00958738,-0.03195793
1704701147459652,-0.00957681,-0.00957681,9.92636013,0.01917476,-0.01065264,0.00426106
1704701147461560,-0.00957681,-0.00957681,9.92636013,0.01491370,-0.02343582,0.02556635
1704701147463621,-0.00957681,-0.01436521,9.92636013,0.01171791,-0.03089267,0.01278317
1704701147465561,-0.00478840,-0.01915361,9.92157173,0.01704423,-0.02130529,-0.01384844
1704701147467543,0.00000000,-0.01915361,9.91678333,0.02237055,-0.01597897,-0.03941479
1704701147469585,0.00478840,-0.01436521,9.91678333,0.02769688,-0.00745685,-0.02876214
1704701147471608,0.00478840,-0.00957681,9.91199493,0.02450108,-0.01171791,-0.00213053
1704701147473578,0.00478840,-0.00957681,9.91199493,0.01491370,-0.01917476,0.01810949
1704701147475622,0.00478840,-0.01436521,9.91199493,0.00639159,-0.02237055,0.01491370
1704701147477536,0.00478840,-0.01915361,9.91199493,0.00958738,-0.02769688,-0.01065264
1704701147479564,0.00957681,-0.01436521,9.91199493,0.01704423,-0.01810949,-0.02556635
1704701147481627,0.00957681,-0.00478840,9.91199493,0.02556635,-0.00745685,-0.02556635
1704701147483619,0.00957681,0.00000000,9.91199493,0.01917476,-0.00532632,-0.00106526
1704701147485555,0.00478840,-0.00478840,9.91199493,0.00958738,-0.01491370,0.01278317
1704701147487574,0.00478840,-0.00478840,9.91199493,0.00745685,-0.02663161,0.00745685
1704701147489638,0.00000000,-0.00478840,9.91199493,0.00852212,-0.03089267,-0.00745685
1704701147491569,0.00000000,0.00957681,9.91678333,0.01384844,-0.02556635,-0.02450108
1704701147493596,0.00000000,0.00957681,9.91678333,0.01704423,-0.01278317,-0.02556635
1704701147495600,0.00000000,0.00957681,9.90720654,0.01597897,-0.00745685,-0.00958738
1704701147497531,-0.00478840,0.00478840,9.90720654,0.01278317,-0.01917476,0.00532632
1704701147499688,-0.00957681,0.00478840,9.90720654,0.00532632,-0.02982740,0.00958738
1704701147501587,-0.01436521,0.00478840,9.91199493,0.00532632,-0.03302320,-0.00213053
1704701147503585,-0.01436521,0.00957681,9.91199493,0.00745685,-0.03089267,-0.01384844
1704701147505623,-0.00957681,0.00957681,9.90720654,0.01810949,-0.01384844,-0.02663161
1704701147507685,-0.00478840,0.00478840,9.90241814,0.01810949,-0.00852212,-0.01278317
1704701147509558,-0.00478840,0.00478840,9.90241814,0.01491370,-0.01171791,-0.00106526
1704701147511615,-0.00957681,0.00478840,9.89762974,0.00958738,-0.02663161,0.01065264
1704701147513638,-0.00957681,0.00478840,9.90241814,0.01171791,-0.03089267,0.00000000
1704701147515590,-0.00478840,0.00957681,9.90241814,0.01278317,-0.02130529,-0.01384844
1704701147517569,0.00000000,0.00000000,9.90241814,0.01597897,-0.00745685,-0.02024002
1704701147519585,0.00000000,0.00000000,9.89762974,0.01810949,-0.00319579,-0.01597897
1704701147521669,0.00000000,0.00000000,9.89762974,0.01810949,-0.01278317,-0.00213053
1704701147523666,-0.00957681,0.00000000,9.89762974,0.01384844,-0.02343582,0.00532632
1704701147525591,-0.00478840,-0.00478840,9.89762974,0.00532632,-0.02876214,0.00000000
1704701147527547,-0.00478840,-0.00957681,9.89762974,0.00852212,-0.02237055,-0.00745685
1704701147529597,-0.00478840,-0.01436521,9.89762974,0.01704423,-0.01597897,-0.01597897
1704701147531640,-0.00478840,-0.01436521,9.89284134,0.02663161,-0.01384844,-0.01810949
1704701147533596,-0.00957681,-0.01436521,9.89284134,0.02450108,-0.01810949,-0.00532632
1704701147535608,-0.00957681,-0.01915361,9.88805294,0.01704423,-0.02450108,0.00106526
1704701147537550,-0.00957681,-0.01915361,9.88805294,0.01278317,-0.02663161,0.00319579
1704701147539609,-0.00478840,-0.02394202,9.88326454,0.01384844,-0.02556635,-0.00319579
1704701147541621,-0.00957681,-0.02873042,9.88326454,0.02237055,-0.02343582,-0.00958738
1704701147543560,-0.00957681,-0.02873042,9.88326454,0.02663161,-0.02130529,-0.01597897
1704701147545581,-0.00478840,-0.02873042,9.87368774,0.02237055,-0.01810949,-0.01491370
1704701147547596,-0.00478840,-0.03351882,9.86889935,0.01597897,-0.02130529,-0.00745685
1704701147549595,0.00000000,-0.03830723,9.86889935,0.01491370,-0.02343582,-0.00319579
1704701147551557,0.00000000,-0.03830723,9.86889935,0.01917476,-0.02769688,-0.00106526
1704701147553611,-0.00478840,-0.03830723,9.87368774,0.02024002,-0.02663161,0.00106526
1704701147555630,-0.00478840,-0.03830723,9.86889935,0.02343582,-0.02130529,-0.00745685
1704701147557561,0.00000000,-0.04309563,9.86411095,0.02343582,-0.01810949,-0.01597897
1704701147559642,0.00478840,-0.04788403,9.85932255,0.01491370,-0.01491370,-0.00958738
1704701147561559,0.00478840,-0.04309563,9.85932255,0.01597897,-0.01704423,0.00106526
1704701147563628,0.00478840,-0.03830723,9.86889935,0.01597897,-0.02556635,0.01065264
1704701147565619,0.00478840,-0.04309563,9.86889935,0.02130529,-0.02769688,-0.00106526
1704701147567556,0.00478840,-0.03830723,9.86889935,0.01917476,-0.02556635,-0.01278317
1704701147569585,0.00957681,-0.04788403,9.85932255,0.01597897,-0.01384844,-0.03089267
1704701147571639,0.00957681,-0.03830723,9.85932255,0.01384844,-0.01278317,-0.01278317
1704701147573636,0.00957681,-0.03351882,9.85932255,0.00958738,-0.01597897,0.00000000
1704701147575587,0.00957681,-0.02394202,9.86411095,0.01278317,-0.02343582,0.00426106
1704701147577565,0.00478840,-0.02873042,9.86889935,0.00852212,-0.02663161,0.00426106
1704701147579581,0.00478840,-0.02873042,9.86411095,0.00852212,-0.02237055,-0.01065264
1704701147581595,0.00478840,-0.02873042,9.85932255,0.01278317,-0.01810949,-0.02343582
1704701147583603,0.00478840,-0.01915361,9.86411095,0.00852212,-0.01597897,-0.01917476
1704701147585605,0.00478840,-0.01436521,9.86411095,0.01171791,-0.01491370,-0.00745685
1704701147587560,0.00478840,-0.00957681,9.86889935,0.00958738,-0.01917476,0.00639159
1704701147589624,0.00478840,-0.01915361,9.87368774,0.01065264,-0.02343582,0.00106526
1704701147591621,0.00478840,-0.01915361,9.87368774,0.01171791,-0.02343582,-0.00852212
1704701147593611,0.00478840,-0.01915361,9.87368774,0.01278317,-0.02450108,-0.02450108
1704701147595599,0.00478840,-0.00957681,9.87368774,0.01278317,-0.01597897,-0.02024002
1704701147597595,0.00957681,-0.00957681,9.87368774,0.01278317,-0.00852212,-0.00639159
1704701147599609,0.00957681,-0.01436521,9.87847614,0.01278317,-0.00852212,0.01384844
1704701147601611,0.00957681,-0.02394202,9.88326454,0.01810949,-0.01597897,0.00852212
1704701147603588,0.00478840,-0.01915361,9.88326454,0.01810949,-0.02556635,-0.00532632
1704701147605593,0.00478840,-0.02394202,9.88326454,0.01597897,-0.02663161,-0.01704423
1704701147607582,0.00957681,-0.01915361,9.88326454,0.01491370,-0.01384844,-0.02024002
1704701147609587,0.00957681,-0.02394202,9.88326454,0.01384844,-0.00852212,-0.00852212
1704701147611601,0.00957681,-0.02394202,9.88805294,0.01704423,-0.00958738,0.00532632
1704701147613636,0.00478840,-0.02873042,9.89284134,0.01810949,-0.02024002,0.00639159
1704701147615638,0.00000000,-0.02394202,9.89762974,0.01597897,-0.02982740,-0.00213053
1704701147617622,-0.00478840,-0.02873042,9.90241814,0.01278317,-0.02769688,-0.01597897
1704701147619600,0.00000000,-0.02873042,9.89284134,0.01597897,-0.01384844,-0.02343582
1704701147621631,0.00000000,-0.02873042,9.89284134,0.01917476,-0.00958738,-0.01065264
1704701147623617,0.00000000,-0.02873042,9.89762974,0.02130529,-0.00852212,0.01278317
1704701147625636,-0.00957681,-0.02394202,9.90241814,0.02024002,-0.02343582,0.01384844
1704701147627586,-0.00957681,-0.02873042,9.90241814,0.01917476,-0.03408846,-0.00213053
1704701147629615,-0.00957681,-0.03351882,9.90241814,0.01810949,-0.02769688,-0.02663161
1704701147631624,-0.00478840,-0.02873042,9.89762974,0.01810949,-0.02130529,-0.02982740
1704701147633611,0.00000000,-0.02873042,9.89762974,0.01917476,-0.01171791,-0.00852212
1704701147635710,0.00000000,-0.02394202,9.89762974,0.02237055,-0.01491370,0.01597897
1704701147637566,-0.00478840,-0.02873042,9.90241814,0.02343582,-0.01810949,0.01278317
1704701147639648,-0.00478840,-0.02873042,9.90241814,0.01810949,-0.02450108,-0.00213053
1704701147641629,-0.00478840,-0.03351882,9.90241814,0.04580637,-0.02876214,-0.01917476
1704701147643609,-0.00478840,-0.02873042,9.89762974,0.11398330,-0.02343582,-0.02982740
1704701147645608,-0.00478840,-0.01915361,9.90241814,0.16724652,-0.01491370,-0.03408846
1704701147647620,0.00000000,-0.01915361,9.91678333,0.11398330,-0.00213053,-0.04048005
1704701147649608,0.00478840,-0.01915361,9.92157173,0.07456851,0.00958738,-0.04154531
1704701147651607,0.01436521,-0.01915361,9.93593693,0.12250541,0.00639159,-0.04367584
1704701147653608,0.02394202,-0.00957681,9.95987892,0.14274544,0.00319579,-0.04580637
1704701147655649,0.03830723,0.00478840,9.97424412,0.07030746,0.01171791,-0.02876214
1704701147657608,0.04788403,0.01436521,9.98382092,0.06604639,0.00958738,-0.00319579
1704701147659609,0.03830723,0.01915361,9.99339771,-0.01810949,-0.00319579,-0.01278317
1704701147661599,0.02873042,0.03351882,10.00776291,-0.09054748,-0.01491370,-0.01171791
1704701147663641,0.01915361,0.05267244,10.01733971,-0.08096009,-0.04793690,-0.04048005
1704701147665634,0.00957681,0.05746084,10.02212811,-0.05752428,-0.07989483,-0.07350325
1704701147667649,-0.01436521,0.07182605,10.03170490,0.00852212,-0.11504856,-0.10546118
1704701147669605,-0.04788403,0.08619126,10.03649330,-0.05113269,-0.14487596,-0.12783173
1704701147671634,-0.07661445,0.09097967,10.04128170,-0.02876214,-0.20346551,-0.12676647
1704701147673644,-0.10534488,0.07182605,10.06043530,-0.02130529,-0.30146983,-0.09480853
1704701147675659,-0.13407530,0.07661445,10.08437729,-0.02237055,-0.35579833,-0.08948221
1704701147677587,-0.15801731,0.07661445,10.07958889,-0.03941479,-0.39627838,-0.08628642
1704701147679624,-0.17717093,0.06224924,10.08437729,0.01491370,-0.48682585,-0.03621899
1704701147681729,-0.20111294,0.05267244,10.09395409,0.02237055,-0.52411008,-0.04154531
1704701147683643,-0.23463176,0.04309563,10.10353088,0.03515373,-0.53263223,-0.04687164
1704701147685626,-0.27293900,0.04309563,10.11310768,0.04793690,-0.53689325,-0.05006743
1704701147687563,-0.32082301,0.00957681,10.10831928,0.06072007,-0.52197957,-0.02450108
1704701147689631,-0.38307226,0.00000000,10.11310768,0.04687164,-0.50173956,-0.04793690
1704701147691646,-0.43574470,-0.00478840,10.13226128,0.02237055,-0.49215218,-0.02876214
1704701147693631,-0.50278234,-0.04309563,10.15620327,0.00426106,-0.45912898,-0.03515373
1704701147695633,-0.57460839,-0.04788403,10.17056847,0.02343582,-0.44101948,-0.02876214
1704701147697624,-0.63206923,-0.07661445,10.17535686,0.05432849,-0.43569314,-0.03621899
1704701147699661,-0.68953007,-0.10055647,10.21366405,0.01171791,-0.40373522,-0.04261058
1704701147701617,-0.73262572,-0.11971009,10.24718285,-0.01171791,-0.37816888,-0.03089267
1704701147703590,-0.76614451,-0.16759412,10.27112484,-0.00426106,-0.39521310,-0.02769688
1704701147705567,-0.78529817,-0.18195933,10.30464458,-0.00319579,-0.38988680,-0.01491370
1704701147707590,-0.78050977,-0.24420857,10.35731697,-0.02663161,-0.35473305,-0.01065264
1704701147709618,-0.78050977,-0.25378537,10.37647057,-0.04154531,-0.33023196,-0.01384844
1704701147711657,-0.75656772,-0.25857377,10.40520096,-0.01917476,-0.31425300,-0.01597897
1704701147713639,-0.68953007,-0.32561144,10.45787334,0.01491370,-0.29188246,-0.02343582
1704701147715653,-0.66079968,-0.32561144,10.46745014,0.00639159,-0.26844662,-0.02982740
1704701147717594,-0.60333884,-0.34476504,10.48181534,0.01704423,-0.24820662,0.00000000
1704701147719603,-0.53151280,-0.37349546,10.50575733,0.03515373,-0.21944447,0.01278317
1704701147721670,-0.45010993,-0.37828386,10.51533413,0.07350325,-0.18322548,0.01917476
1704701147723653,-0.36391866,-0.39743748,10.50575733,0.07137272,-0.14061491,0.02769688
1704701147725618,-0.27293900,-0.41180268,10.49618053,0.08096009,-0.11185277,0.02237055
1704701147727582,-0.18195933,-0.42137951,10.48660374,0.10652644,-0.06285060,0.03302320
1704701147729622,-0.09097967,-0.43574470,10.45308495,0.11611383,0.00958738,0.03408846
1704701147731662,-0.00957681,-0.42616791,10.40520096,0.13209279,0.07243798,0.01065264
1704701147733696,0.06224924,-0.43574470,10.35731697,0.12037488,0.11717909,-0.00319579
1704701147735593,0.13407530,-0.42137951,10.29985619,0.13102752,0.18322548,-0.01917476
1704701147737565,0.19153613,-0.41180268,10.21845245,0.13209279,0.25779399,-0.03621899
1704701147739610,0.23942018,-0.40222588,10.13704967,0.15020229,0.31638354,-0.07669904
1704701147741614,0.27772740,-0.36870706,10.05085850,0.17363811,0.36218992,-0.07243798
1704701147743723,0.30166942,-0.34955344,9.93593693,0.16405073,0.43036684,-0.06072007
1704701147745615,0.31603462,-0.32082301,9.82580376,0.16618125,0.50067431,-0.08522116
1704701147747722,0.32561144,-0.31124622,9.72045898,0.17470337,0.54008907,-0.08948221
1704701147749595,0.32082301,-0.27293900,9.58638382,0.13848437,0.57524282,-0.06711166
1704701147751655,0.30166942,-0.24420857,9.39005947,0.10759171,0.64128917,-0.09693906
1704701147753615,0.29688102,-0.24420857,9.32781029,0.10865697,0.66259450,-0.11185277
1704701147755635,0.28730419,-0.22026655,9.18894577,0.05219796,0.65726817,-0.08628642
1704701147757573,0.26815060,-0.20590134,9.05965900,-0.01917476,0.67963868,-0.09906960
1704701147759594,0.25378537,-0.21547815,8.92558384,-0.04048005,0.68709558,-0.11078750
1704701147761609,0.23942018,-0.21068975,8.79150867,-0.05539375,0.67218184,-0.10226539
1704701147763624,0.22505496,-0.20590134,8.66701031,-0.11824435,0.67750818,-0.07669904
1704701147765688,0.21547815,-0.19153613,8.53772354,-0.17363811,0.64768076,-0.06817693
1704701147767587,0.20111294,-0.20111294,8.42280197,-0.19494340,0.61572284,-0.04793690
1704701147769567,0.19632454,-0.20590134,8.31745625,-0.21198763,0.59015650,-0.03515373
1704701147771650,0.19632454,-0.18195933,8.21211147,-0.24820662,0.55606806,-0.03302320
1704701147773700,0.18674773,-0.19153613,8.12592030,-0.29401299,0.50387007,-0.01278317
1704701147775614,0.19153613,-0.20590134,8.04930592,-0.28868666,0.45912898,0.00532632
1704701147777559,0.20590134,-0.18195933,7.99184513,-0.27270770,0.34940675,-0.02663161
1704701147779589,0.24899697,-0.15801731,8.06845951,-0.22903186,0.12144014,-0.00532632
1704701147781605,0.33518824,-0.08140286,8.37491798,-0.15659387,-0.10546118,0.02130529
1704701147783712,0.41659111,0.04309563,8.81066227,0.02450108,-0.31531829,0.04900216
1704701147785614,0.47405192,0.17717093,9.28950214,0.17150757,-0.39414784,0.05006743
1704701147787569,0.49799395,0.28730419,9.78270817,0.14807175,-0.42823631,0.02769688
1704701147789651,0.46926352,0.35913026,10.27591324,0.04367584,-0.39414784,-0.02556635
1704701147791630,0.43574470,0.41180268,10.70208168,-0.07350325,-0.30679616,-0.14487596
1704701147793534,0.39264908,0.43574470,11.02769279,-0.15978967,-0.24820662,-0.20026971
1704701147795586,0.30166942,0.44053310,11.38682365,-0.23009712,-0.20026971,-0.15446334
1704701147797600,0.28730419,0.44053310,11.46343803,-0.28655612,-0.15872440,-0.14274544
1704701147799706,0.23463176,0.44053310,11.58314800,-0.36645097,-0.11504856,-0.10652644
1704701147801626,0.17238252,0.39743748,11.68849277,-0.36538571,-0.17257284,-0.09054748
1704701147803635,0.15801731,0.38786069,11.68370438,-0.39521310,-0.22050974,-0.03089267
1704701147805642,0.11492168,0.36870706,11.64060879,-0.40373522,-0.18855180,-0.01597897
1704701147807573,0.09097967,0.34955344,11.58793640,-0.39627838,-0.18535601,-0.01278317
1704701147809611,0.08140286,0.33039984,11.50653362,-0.33342776,-0.25779399,-0.02237055
1704701147811596,0.06703765,0.30645782,11.39161205,-0.34088463,-0.31212249,-0.02024002
1704701147813636,0.06224924,0.29688102,11.26232433,-0.36112463,-0.30146983,-0.02769688
1704701147815622,0.04788403,0.27772740,11.12824917,-0.31105721,-0.31957933,-0.03834952
1704701147817590,0.04788403,0.25378537,10.96544361,-0.28016454,-0.33555830,-0.04154531
1704701147819570,0.05267244,0.24899697,10.78827286,-0.27164242,-0.31851408,-0.05539375
1704701147821655,0.04309563,0.23463176,10.63025570,-0.25566345,-0.33662355,-0.04048005
1704701147823707,0.04788403,0.21547815,10.46266174,-0.20133498,-0.36751622,-0.04367584
1704701147825591,0.05746084,0.21068975,10.29506683,-0.15552860,-0.32064459,-0.03302320
1704701147827635,0.04788403,0.20111294,10.13226128,-0.15552860,-0.26844662,-0.03195793
1704701147829622,0.05267244,0.19153613,9.95030212,-0.11504856,-0.27270770,-0.04580637
1704701147831644,0.06224924,0.19153613,9.79707336,-0.07989483,-0.25992453,-0.05006743
1704701147833611,0.04309563,0.17717093,9.66778660,-0.05645901,-0.21198763,-0.01597897
1704701147835615,0.04788403,0.16759412,9.52413464,-0.03302320,-0.20666130,-0.00958738
1704701147837607,0.06224924,0.15801731,9.39484787,0.00213053,-0.17789917,-0.01917476
1704701147839691,0.05746084,0.13886370,9.22725296,0.03941479,-0.09161274,0.00426106
1704701147841609,0.06703765,0.12928689,9.17458057,0.06391586,-0.08415589,0.02556635
1704701147843817,0.09097967,0.11013328,9.09796619,0.07456851,-0.09693906,0.02556635
1704701147845599,0.11013328,0.07661445,9.01656342,0.07776430,-0.05432849,0.04261058
1704701147847604,0.12449849,0.05746084,8.98304462,0.10013486,-0.01278317,0.05965481
1704701147849636,0.15801731,0.02873042,8.92558384,0.12783173,0.02343582,0.05858954
1704701147851614,0.18674773,0.00478840,8.90643024,0.13102752,0.04580637,0.06711166
1704701147853605,0.22026655,-0.03830723,8.89206505,0.12889700,0.06817693,0.08522116
1704701147855679,0.26336220,-0.07661445,8.87769985,0.13954964,0.08628642,0.09267800
1704701147857585,0.30166942,-0.11492168,8.88248825,0.15233281,0.13209279,0.09693906
1704701147859618,0.33997664,-0.15322891,8.88248825,0.19707392,0.17150757,0.09906960
1704701147861618,0.40222588,-0.17717093,8.95431423,0.24288028,0.19174761,0.09480853
1704701147863684,0.46926352,-0.22984336,9.14585018,0.25779399,0.18002969,0.08202536
1704701147865640,0.55066639,-0.29209262,9.39005947,0.30253509,0.15872440,0.07030746
1704701147867592,0.65122288,-0.36391866,9.67257500,0.32916671,0.16937704,0.06924219
1704701147869598,0.73741412,-0.44532153,9.94072533,0.35686359,0.20026971,0.05326322
1704701147871653,0.80445176,-0.49320555,10.15141487,0.34194988,0.23648870,0.02876214
1704701147873645,0.90021986,-0.57939678,10.41956615,0.35473305,0.24501082,0.02450108
1704701147875611,0.92895025,-0.61291564,10.51533413,0.36432043,0.25992453,0.02024002
1704701147877573,0.95768070,-0.62728083,10.54406452,0.39947417,0.27696875,-0.00745685
1704701147879626,0.97204590,-0.64164603,10.55842972,0.41651839,0.31531829,-0.02024002
1704701147881559,0.98162270,-0.67516488,10.57279491,0.39521310,0.31638354,-0.03089267
1704701147883613,0.97683430,-0.67995328,10.52969933,0.37710360,0.28762141,-0.05219796
1704701147885610,0.97204590,-0.69431847,10.46745014,0.38349521,0.26525083,-0.06604639
1704701147887551,0.95289230,-0.69910687,10.39562416,0.36964676,0.24501082,-0.05645901
1704701147889618,0.93852705,-0.69910687,10.35252857,0.34301513,0.23648870,-0.06711166
1704701147891632,0.91458505,-0.68474168,10.19451046,0.29294771,0.21092236,-0.07243798
1704701147893623,0.86670101,-0.69431847,10.11789608,0.27270770,0.17789917,-0.07669904
1704701147895604,0.80445176,-0.68474168,10.04128170,0.26205504,0.13741912,-0.05645901
1704701147897617,0.78529817,-0.66079968,10.00297451,0.24394555,0.10333065,-0.04154531
1704701147899611,0.71826053,-0.62728083,9.99818611,0.22690132,0.07243798,-0.04474111
1704701147901607,0.60333884,-0.60333884,10.06522369,0.20879182,0.04900216,-0.03621899
1704701147903637,0.50757074,-0.54108959,10.12268448,0.21411815,0.01810949,-0.02556635
1704701147905659,0.32082301,-0.45968673,10.29506683,0.21731395,-0.07456851,-0.03302320
1704701147907684,0.20590134,-0.41180268,10.40998936,0.17257284,-0.11930962,-0.03302320
1704701147909600,0.10534488,-0.36870706,10.46745014,0.13209279,-0.16831177,-0.02450108
1704701147911679,0.06224924,-0.34955344,10.49139214,0.11078750,-0.22264026,-0.03089267
1704701147913632,-0.01436521,-0.32082301,10.52491093,0.01491370,-0.26844662,-0.03621899
1704701147915629,-0.09576806,-0.31124622,10.52012253,-0.03515373,-0.32916671,-0.05752428
1704701147917582,-0.12449849,-0.28251579,10.47702694,-0.05752428,-0.41119206,-0.05858954
1704701147919585,-0.16759412,-0.27293900,10.44350815,-0.15552860,-0.44315001,-0.05752428
1704701147921612,-0.22984336,-0.25378537,10.33337498,-0.20453078,-0.47191215,-0.08628642
1704701147923626,-0.23463176,-0.24899697,10.28070164,-0.23968449,-0.48789111,-0.08628642
1704701147925731,-0.26336220,-0.24420857,10.19929886,-0.29188246,-0.54754591,-0.09800433
1704701147927551,-0.31603462,-0.22984336,10.08437729,-0.36964676,-0.56352490,-0.11824435
1704701147929708,-0.33039984,-0.22984336,10.02691650,-0.39947417,-0.57950383,-0.10865697
1704701147931642,-0.35434186,-0.20590134,9.89762974,-0.44847631,-0.58589542,-0.11504856
1704701147933590,-0.40701428,-0.19632454,9.82580376,-0.48576057,-0.57950383,-0.12570120
1704701147935608,-0.42137951,-0.18674773,9.78270817,-0.52091432,-0.57630807,-0.11930962
1704701147937593,-0.45010993,-0.15801731,9.76355457,-0.53156698,-0.55287224,-0.11504856
1704701147939599,-0.53151280,-0.11013328,9.84495735,-0.48682585,-0.50706589,-0.11930962
1704701147941633,-0.59855044,-0.01915361,9.96466732,-0.42930156,-0.45486790,-0.11717909
1704701147943611,-0.67995328,0.06224924,10.10353088,-0.37497309,-0.39840889,-0.13635385
1704701147945611,-0.76614451,0.14844051,10.29027843,-0.34514567,-0.36645097,-0.13954964
1704701147947603,-0.82839382,0.24899697,10.43393135,-0.35579833,-0.37284255,-0.15659387
1704701147949614,-0.88585460,0.30166942,10.52491093,-0.38029939,-0.38029939,-0.17576863
1704701147951732,-0.93373865,0.35434186,10.59194851,-0.41438785,-0.42610577,-0.18109496
1704701147953597,-0.96725750,0.43095630,10.62067890,-0.45060685,-0.42504051,-0.17470337
1704701147955636,-0.97204590,0.45489833,10.62067890,-0.46445531,-0.42610577,-0.17363811
1704701147957589,-0.99119949,0.48362875,10.60631371,-0.46658581,-0.43249735,-0.17683390
1704701147959610,-1.01035309,0.50757074,10.57279491,-0.47084689,-0.43569314,-0.17470337
1704701147961735,-0.97204590,0.56024319,10.51533413,-0.48576057,-0.40053943,-0.19707392
1704701147963617,-0.99598789,0.57939678,10.43871975,-0.45486790,-0.34088463,-0.14487596
1704701147965624,-0.95768070,0.61291564,10.36210537,-0.44847631,-0.28762141,-0.15126754
1704701147967583,-0.92895025,0.63685763,10.32379818,-0.46232477,-0.22477080,-0.14274544
1704701147969503,-0.90979666,0.65601128,10.27112484,-0.41651839,-0.14807175,-0.14168017
1704701147971639,-0.84275901,0.67037648,10.18493366,-0.33555830,-0.12144014,-0.13315806
1704701147973630,-0.79966336,0.67995328,10.14183807,-0.31212249,-0.06498113,-0.14594123
1704701147975855,-0.72783732,0.70389527,10.09395409,-0.28122982,0.02237055,-0.13102752
1704701147977566,-0.62728083,0.69431847,10.01255131,-0.16724652,0.05645901,-0.08202536
1704701147979612,-0.57460839,0.68953007,9.97424412,-0.14487596,0.09054748,-0.07882957
1704701147981645,-0.47884035,0.71826053,9.92157173,-0.11398330,0.18002969,-0.07989483
1704701147983747,-0.41180268,0.70868373,9.88326454,-0.06924219,0.21411815,-0.04474111
1704701147985611,-0.28730419,0.69910687,9.77313137,-0.00852212,0.33023196,-0.04367584
1704701147987683,-0.23942018,0.70389527,9.74440098,0.04367584,0.38775626,-0.02343582
1704701147989628,-0.17717093,0.67995328,9.70609379,0.09906960,0.41864893,0.00319579
1704701147991712,-0.12449849,0.67995328,9.63905621,0.10652644,0.49002165,0.00106526
1704701147993641,-0.01915361,0.62728083,9.54807663,0.18109496,0.58909124,0.00532632
1704701147995601,0.00000000,0.60812724,9.52413464,0.23968449,0.63383234,0.01597897
1704701147997618,0.03830723,0.61770403,9.44273186,0.25779399,0.70094401,0.02876214
1704701147999609,0.09097967,0.58418524,9.38048267,0.28762141,0.75527251,0.03728426
1704701148001702,0.11971009,0.52193600,9.33259869,0.36538571,0.80320936,0.01597897
1704701148003604,0.17238252,0.50757074,9.20809937,0.42717105,0.86392945,0.03089267
1704701148005754,0.19153613,0.49320555,9.17458057,0.42610577,0.88630003,0.03728426
1704701148007558,0.19632454,0.41659111,9.08838940,0.50067431,0.91932321,0.01810949
1704701148009624,0.22505496,0.38307226,9.00219822,0.57524282,0.93956321,0.00958738
1704701148011601,0.23942018,0.37349546,8.95910263,0.58483016,0.93743271,0.02130529
1704701148013778,0.23942018,0.34955344,8.91121864,0.55926383,0.93636745,0.01384844
1704701148015650,0.25378537,0.27293900,8.81066227,0.66046393,0.90440953,-0.00213053
1704701148017612,0.28730419,0.26336220,8.80587387,0.69455242,0.84901577,-0.01491370
1704701148019588,0.34955344,0.22026655,8.96867943,0.68070400,0.72544509,-0.03408846
1704701148021638,0.43095630,0.09576806,9.22246456,0.67111659,0.52197957,-0.04793690
1704701148023752,0.57939678,0.00000000,9.50498104,0.67431241,0.31957933,-0.07030746
1704701148025622,0.69910687,-0.11971009,9.86889935,0.70413977,0.21731395,-0.10972223
1704701148027581,0.81402856,-0.24899697,10.23281765,0.64128917,0.11930962,-0.10439591
1704701148029625,0.93373865,-0.33039984,10.53448772,0.58163440,0.06178534,-0.07776430
1704701148031736,0.99119949,-0.43095630,10.78348446,0.65726817,0.08415589,-0.05113269
1704701148033615,1.03908348,-0.51235914,10.98459721,0.66046393,0.19494340,-0.05539375
1704701148035613,1.05344880,-0.52672440,11.02769279,0.64874601,0.23968449,-0.03834952
1704701148037594,1.04387200,-0.56503159,11.09951878,0.62637550,0.28229508,-0.02343582
1704701148039625,1.00077629,-0.59376204,11.10909557,0.66152924,0.33875409,-0.01065264
1704701148041744,0.97683430,-0.60333884,11.06121159,0.73929352,0.34727621,-0.00852212
1704701148043612,0.94810385,-0.59376204,11.01332760,0.69455242,0.31851408,0.00319579
1704701148045620,0.87148941,-0.59376204,10.94150162,0.72544509,0.31105721,0.01171791
1704701148047614,0.84275901,-0.58418524,10.83615685,0.71692294,0.27164242,0.01278317
1704701148049614,0.80445176,-0.56981999,10.74517727,0.69135660,0.21092236,-0.00639159
1704701148051604,0.75177932,-0.56024319,10.64462090,0.65620291,0.10759171,0.00639159
1704701148053622,0.70389527,-0.53630120,10.48181534,0.58376491,0.03621899,-0.00639159
1704701148055662,0.67995328,-0.53630120,10.43393135,0.56139433,-0.01704423,0.00319579
1704701148057634,0.66079968,-0.51714754,10.31900978,0.50813115,-0.08415589,0.00958738
1704701148059677,0.61770403,-0.47884035,10.16578007,0.46445531,-0.14381070,0.02343582
1704701148061612,0.59855044,-0.48362875,10.11310768,0.42290998,-0.20879182,0.02556635
1704701148063757,0.59376204,-0.45968673,10.00297451,0.36858150,-0.28442562,0.02876214
1704701148065677,0.55066639,-0.43095630,9.86889935,0.31531829,-0.30679616,0.01810949
1704701148067612,0.54587799,-0.42137951,9.81143856,0.27696875,-0.34301513,0.02450108
1704701148069588,0.53151280,-0.40701428,9.69651699,0.25033715,-0.42610577,0.03941479
1704701148071661,0.50278234,-0.39264908,9.62947941,0.17470337,-0.48363006,0.03515373
1704701148073659,0.50278234,-0.37349546,9.54807663,0.08309063,-0.51239222,0.02343582
1704701148075622,0.47884035,-0.36870706,9.46667385,0.03302320,-0.57204700,0.03302320
1704701148077574,0.46447513,-0.36870706,9.39005947,-0.02663161,-0.61252707,0.03941479
1704701148079611,0.45489833,-0.35434186,9.30386734,-0.11504856,-0.62850600,0.01810949
1704701148081755,0.43095630,-0.34955344,9.25598335,-0.17150757,-0.66365975,0.02556635
1704701148083617,0.40222588,-0.35434186,9.16500378,-0.23648870,-0.69348717,0.01810949
1704701148085633,0.38307226,-0.35434186,9.13627338,-0.29081720,-0.67963868,0.01597897
1704701148087574,0.35434186,-0.34476504,9.11711979,-0.37071201,-0.64661551,0.00639159
1704701148089623,0.28730419,-0.34476504,9.14585018,-0.44954160,-0.57311225,0.00000000
1704701148091630,0.12449849,-0.30645782,9.36132908,-0.54328483,-0.45380265,-0.01810949
1704701148093637,0.07182605,-0.28251579,9.45709705,-0.57630807,-0.39840889,-0.01810949
1704701148095570,-0.07182605,-0.22984336,9.65342140,-0.63276708,-0.34514567,-0.01171791
1704701148097607,-0.23463176,-0.15801731,9.91678333,-0.69029135,-0.28868666,-0.00426106
1704701148099619,-0.28730419,-0.13886370,10.00297451,-0.69561768,-0.27377295,0.00958738
1704701148101652,-0.39743748,-0.09097967,10.14662647,-0.69242191,-0.28655612,0.03408846
1704701148103612,-0.48362875,0.00478840,10.27591324,-0.67431241,-0.33875409,0.02876214
1704701148105649,-0.52193600,0.02873042,10.31422138,-0.64448500,-0.35473305,0.01171791
1704701148107593,-0.57939678,0.08619126,10.37647057,-0.60400492,-0.34088463,0.01171791
1704701148109621,-0.59376204,0.15801731,10.41477776,-0.57950383,-0.32916671,-0.00958738
1704701148111606,-0.63206923,0.21068975,10.45308495,-0.58802599,-0.34621096,-0.02876214
1704701148113670,-0.66079968,0.24899697,10.46745014,-0.56778592,-0.36218992,-0.01491370
1704701148115642,-0.67516488,0.31603462,10.46745014,-0.52304482,-0.31318775,-0.02237055
1704701148117586,-0.69910687,0.34955344,10.48181534,-0.50919640,-0.25566345,-0.02450108
1704701148119605,-0.71347213,0.39264908,10.46266174,-0.51026165,-0.23329291,-0.04261058
1704701148121666,-0.72304893,0.44532153,10.44829655,-0.48149952,-0.20346551,-0.04367584
1704701148123636,-0.73741412,0.45968673,10.43393135,-0.42610577,-0.15126754,-0.05645901
1704701148125603,-0.74220252,0.50757074,10.40041256,-0.39734364,-0.11611383,-0.05326322
1704701148127644,-0.73262572,0.54587799,10.38125896,-0.38349521,-0.10120012,-0.06285060
1704701148129610,-0.71826053,0.56024319,10.34774017,-0.35686359,-0.07882957,-0.05113269
1704701148131636,-0.69431847,0.59855044,10.30943298,-0.31105721,-0.04474111,-0.05219796
1704701148133670,-0.65122288,0.61291564,10.28070164,-0.26738137,-0.03621899,-0.05219796
1704701148135631,-0.59855044,0.61770403,10.23760605,-0.24074976,-0.03621899,-0.02769688
1704701148137588,-0.53630120,0.63206923,10.20887566,-0.22903186,-0.02130529,-0.01704423
1704701148139637,-0.45489833,0.62249243,10.16578007,-0.18535601,0.00319579,-0.01917476
1704701148141632,-0.33997664,0.62249243,10.10353088,-0.12570120,0.03195793,0.01171791
1704701148143599,-0.29688102,0.61770403,10.09395409,-0.10546118,0.03515373,0.02450108
1704701148145543,-0.20111294,0.58418524,10.05564690,-0.09161274,0.05219796,0.02343582
1704701148147617,-0.08140286,0.56024319,10.01733971,-0.05326322,0.09161274,0.03941479
1704701148149632,-0.03830723,0.54108959,10.00776291,-0.01278317,0.11930962,0.04261058
1704701148151776,0.04788403,0.50278234,9.96466732,0.02663161,0.16831177,0.03621899
1704701148153621,0.15801731,0.47884035,9.95509052,0.09267800,0.18535601,0.05858954
1704701148155656,0.19153613,0.45010993,9.95509052,0.11611383,0.20453078,0.06285060
1704701148157602,0.25857377,0.40701428,9.92636013,0.15872440,0.25885925,0.05965481
1704701148159686,0.31603462,0.39743748,9.90720654,0.21198763,0.30360037,0.07989483
1704701148161716,0.37349546,0.35913026,9.89762974,0.26525083,0.32384038,0.08948221
1704701148163660,0.41180268,0.32561144,9.87368774,0.30040458,0.34940675,0.09480853
1704701148165634,0.44532153,0.30166942,9.85932255,0.34301513,0.40266997,0.10120012
1704701148167583,0.48362875,0.25857377,9.83538055,0.38562572,0.43462789,0.11717909
1704701148169614,0.49799395,0.23942018,9.80186176,0.42717105,0.46019423,0.12570120
1704701148171621,0.51235914,0.20590134,9.77791977,0.47404268,0.50067431,0.10972223
1704701148173636,0.52672440,0.16280572,9.74918938,0.51878381,0.53263223,0.09587380
1704701148175655,0.52672440,0.15322891,9.72524738,0.54328483,0.53263223,0.08415589
1704701148177610,0.52193600,0.11971009,9.70609379,0.56991649,0.53156698,0.07669904
1704701148179619,0.52193600,0.08140286,9.66299820,0.62637550,0.54648066,0.06285060
1704701148181662,0.50757074,0.07661445,9.63426781,0.67218184,0.56032908,0.06711166
1704701148183648,0.50278234,0.04788403,9.61511421,0.67111659,0.54435015,0.06711166
1704701148185610,0.50278234,0.02873042,9.59596062,0.66579026,0.48576057,0.05965481
1704701148187588,0.49320555,-0.01436521,9.65342140,0.68389976,0.39840889,0.03195793
1704701148189687,0.52193600,-0.08140286,9.76834297,0.63702816,0.30573088,0.00426106
1704701148191647,0.56981999,-0.17717093,10.02212811,0.54754591,0.17257284,-0.01597897
1704701148193619,0.56981999,-0.22505496,10.12268448,0.52943641,0.09480853,-0.02769688
1704701148195671,0.58897364,-0.31124622,10.29985619,0.52091432,0.03195793,-0.04048005
1704701148197604,0.59855044,-0.37828386,10.53448772,0.49960902,0.00639159,-0.04048005
1704701148199619,0.59376204,-0.40701428,10.59194851,0.48149952,-0.01810949,-0.02343582
1704701148201601,0.59376204,-0.44532153,10.65419769,0.53263223,-0.03089267,-0.01917476
1704701148203582,0.57939678,-0.45489833,10.68292809,0.58376491,-0.01491370,-0.01278317
1704701148205660,0.56024319,-0.46926352,10.70208168,0.58589542,-0.04367584,0.00000000
1704701148207617,0.54587799,-0.46447513,10.67813969,0.57524282,-0.10546118,-0.00319579
1704701148209633,0.52193600,-0.46447513,10.64940929,0.57630807,-0.14487596,-0.02982740
1704701148211628,0.50278234,-0.46926352,10.59673691,0.56459016,-0.17150757,-0.02556635
1704701148213631,0.48841715,-0.45010993,10.52491093,0.53476274,-0.21731395,-0.02024002
1704701148215640,0.46926352,-0.45968673,10.47702694,0.48682585,-0.29614350,-0.00745685
1704701148217603,0.45968673,-0.45489833,10.40041256,0.43995422,-0.32916671,0.00106526
1704701148219586,0.44532153,-0.44053310,10.32858658,0.38669100,-0.38136467,0.02343582
1704701148221637,0.43574470,-0.45010993,10.26633644,0.33662355,-0.42717105,0.03728426
1704701148223651,0.43095630,-0.43574470,10.17056847,0.28229508,-0.47617319,0.04793690
1704701148225664,0.41180268,-0.43095630,10.10831928,0.23009712,-0.53369749,0.05432849
1704701148227587,0.40701428,-0.43095630,10.04128170,0.15552860,-0.56352490,0.03408846
1704701148229630,0.39264908,-0.41659111,9.95987892,0.10333065,-0.59761333,0.02769688
1704701148231643,0.37349546,-0.43095630,9.90720654,0.05858954,-0.60507017,0.02876214
1704701148233651,0.35913026,-0.42616791,9.84495735,-0.01810949,-0.61359233,0.01384844
1704701148235596,0.32561144,-0.42137951,9.80186176,-0.10120012,-0.58802599,0.01278317
1704701148237593,0.28730419,-0.42616791,9.78270817,-0.16405073,-0.58163440,0.01491370
1704701148239614,0.23463176,-0.42616791,9.74440098,-0.21837921,-0.56245965,0.00958738
1704701148241621,0.17717093,-0.41659111,9.72524738,-0.29188246,-0.51239222,-0.00319579
1704701148243645,0.14365210,-0.41659111,9.72045898,-0.33981934,-0.48576057,0.00000000
1704701148245774,0.05267244,-0.41659111,9.71567059,-0.39521310,-0.45060685,-0.00639159
1704701148247634,0.00000000,-0.39264908,9.72524738,-0.43782368,-0.40480047,-0.00639159
1704701148249635,-0.05267244,-0.38786069,9.73003578,-0.46552056,-0.37284255,-0.00852212
1704701148251637,-0.13886370,-0.37349546,9.73961258,-0.50919640,-0.36005938,0.00852212
1704701148253608,-0.16280572,-0.34476504,9.74918938,-0.54221958,-0.31851408,-0.00106526
1704701148255689,-0.25378537,-0.32082301,9.79228497,-0.55393749,-0.30466563,-0.00426106
1704701148257606,-0.30645782,-0.28251579,9.82101536,-0.56885123,-0.28336033,-0.00319579
1704701148259657,-0.35434186,-0.23463176,9.84495735,-0.58376491,-0.27270770,-0.01384844
1704701148261616,-0.41659111,-0.19632454,9.88805294,-0.58802599,-0.23116238,-0.02556635
1704701148263663,-0.44532153,-0.14844051,9.90720654,-0.58909124,-0.22903186,-0.04580637
1704701148265630,-0.49320555,-0.09097967,9.94551373,-0.59761333,-0.20666130,-0.05326322
1704701148267601,-0.52193600,-0.04309563,9.99339771,-0.60400492,-0.20240024,-0.06498113
1704701148269594,-0.53630120,0.00957681,10.00776291,-0.57311225,-0.18429075,-0.06817693
1704701148271639,-0.56981999,0.07661445,10.04607010,-0.55393749,-0.15659387,-0.08522116
1704701148273637,-0.56503159,0.13407530,10.07001209,-0.52837116,-0.14274544,-0.08309063
1704701148275639,-0.56981999,0.19632454,10.08916569,-0.52197957,-0.12357067,-0.09480853
1704701148277598,-0.58897364,0.25378537,10.12268448,-0.48789111,-0.10120012,-0.10120012
1704701148279622,-0.56981999,0.30645782,10.12747288,-0.45380265,-0.09374327,-0.09693906
1704701148281645,-0.56503159,0.36870706,10.14183807,-0.42717105,-0.06498113,-0.09480853
1704701148283639,-0.55545479,0.41659111,10.16099167,-0.39414784,-0.06178534,-0.09374327
1704701148285613,-0.51235914,0.48362875,10.15620327,-0.35579833,-0.04687164,-0.07882957
1704701148287602,-0.50278234,0.50278234,10.17056847,-0.33662355,-0.04048005,-0.07030746
1704701148289607,-0.47405192,0.53151280,10.18014526,-0.30253509,-0.04261058,-0.05858954
1704701148291637,-0.43095630,0.57460839,10.16578007,-0.28229508,-0.00958738,-0.05432849
1704701148293619,-0.40222588,0.59855044,10.18014526,-0.27377295,0.03195793,-0.05858954
1704701148295694,-0.35434186,0.61770403,10.17056847,-0.23116238,0.04048005,-0.04580637
1704701148297618,-0.30166942,0.64643449,10.17056847,-0.17363811,0.06924219,-0.04687164
1704701148299602,-0.28251579,0.64643449,10.17535686,-0.15126754,0.10013486,-0.05113269
1704701148301636,-0.23463176,0.65601128,10.17056847,-0.12783173,0.13635385,-0.04154531
1704701148303637,-0.19632454,0.67037648,10.17535686,-0.08309063,0.16937704,-0.03408846
1704701148305679,-0.16280572,0.66079968,10.17535686,-0.04048005,0.23009712,-0.02663161
1704701148307602,-0.12449849,0.65601128,10.18014526,0.00319579,0.25672874,-0.01171791
1704701148309621,-0.09576806,0.65601128,10.19451046,0.05006743,0.28442562,0.00532632
1704701148311614,-0.06703765,0.64643449,10.18972206,0.10226539,0.32916671,0.02769688
1704701148313668,-0.04309563,0.63206923,10.19451046,0.14807175,0.36538571,0.03408846
1704701148315649,-0.01915361,0.61770403,10.18972206,0.19281286,0.39734364,0.04793690
1704701148317592,0.00478840,0.60812724,10.18014526,0.24181503,0.41012681,0.05326322
1704701148319599,0.01436521,0.58418524,10.19451046,0.29720879,0.42290998,0.06711166
1704701148321641,0.03830723,0.55545479,10.17535686,0.37071201,0.43462789,0.06711166
1704701148323645,0.05267244,0.54587799,10.16578007,0.40799627,0.45699844,0.05645901
1704701148325652,0.06224924,0.51235914,10.16578007,0.45593318,0.46125951,0.05539375
1704701148327580,0.08140286,0.48841715,10.14183807,0.51878381,0.44634581,0.05113269
1704701148329622,0.08619126,0.47405192,10.13226128,0.58802599,0.44741106,0.04261058
1704701148331661,0.09576806,0.43095630,10.12268448,0.61039650,0.43995422,0.03515373
1704701148333614,0.10055647,0.42137951,10.10831928,0.61891866,0.42610577,0.04580637
1704701148335601,0.10534488,0.39743748,10.09874249,0.66152924,0.41332260,0.03728426
1704701148337612,0.11971009,0.35434186,10.08437729,0.72331452,0.38775626,0.03834952
1704701148339646,0.11971009,0.35434186,10.08437729,0.71798825,0.36005938,0.04367584
1704701148341677,0.13407530,0.31603462,10.08437729,0.70946610,0.32384038,0.06498113
1704701148343651,0.14365210,0.29209262,10.08437729,0.73396719,0.30466563,0.06072007
1704701148345620,0.14844051,0.27293900,10.08437729,0.76379460,0.27164242,0.06391586
1704701148347609,0.17717093,0.22026655,10.07480049,0.75101143,0.21837921,0.05432849
1704701148349601,0.17238252,0.22505496,10.08437729,0.74248934,0.19494340,0.05965481
1704701148351665,0.19153613,0.18195933,10.08437729,0.75420719,0.16618125,0.05219796
1704701148353587,0.21068975,0.13886370,10.07480049,0.75207669,0.15446334,0.07669904
1704701148355647,0.20111294,0.15322891,10.07001209,0.74994618,0.12783173,0.07030746
1704701148357577,0.23463176,0.10055647,10.06043530,0.73609775,0.10226539,0.06498113
1704701148359603,0.22505496,0.08140286,10.06043530,0.73290193,0.06072007,0.05432849
1704701148361606,0.22505496,0.06703765,10.06043530,0.71159667,0.02024002,0.03941479
1704701148363624,0.24899697,0.01436521,10.06522369,0.68603027,0.00213053,0.02982740
1704701148365586,0.23463176,0.01436521,10.07001209,0.66259450,-0.03621899,0.04261058
1704701148367589,0.25857377,-0.02394202,10.07001209,0.63809341,-0.06178534,0.02982740
1704701148369584,0.26336220,-0.05746084,10.07958889,0.61359233,-0.09054748,0.03195793
1704701148371606,0.25857377,-0.05746084,10.09874249,0.56991649,-0.13102752,0.04474111
1704701148373613,0.27772740,-0.11013328,10.09874249,0.50813115,-0.17470337,0.04154531
1704701148375587,0.27293900,-0.11492168,10.11310768,0.47617319,-0.19494340,0.05006743
1704701148377618,0.28251579,-0.13407530,10.11310768,0.44208473,-0.20133498,0.05858954
1704701148379748,0.29209262,-0.17717093,10.12747288,0.37284255,-0.23009712,0.06285060
1704701148381699,0.28251579,-0.17717093,10.14662647,0.31212249,-0.25885925,0.06711166
1704701148383611,0.28730419,-0.22505496,10.15620327,0.25140241,-0.25672874,0.05752428
1704701148385618,0.28730419,-0.24420857,10.16099167,0.19494340,-0.27483824,0.07030746
1704701148387601,0.27772740,-0.24899697,10.18014526,0.11930962,-0.28122982,0.07350325
1704701148389603,0.28251579,-0.30166942,10.18972206,0.06711166,-0.28016454,0.06498113
1704701148391627,0.27293900,-0.29209262,10.19451046,0.01704423,-0.30679616,0.05326322
1704701148393616,0.25378537,-0.31603462,10.21366405,-0.06498113,-0.31425300,0.03941479
1704701148395586,0.26336220,-0.34955344,10.22802925,-0.13315806,-0.31531829,0.02237055
1704701148397643,0.23463176,-0.33039984,10.22802925,-0.18109496,-0.30679616,0.00852212
1704701148399624,0.22505496,-0.34955344,10.25197124,-0.23435818,-0.29933929,-0.00745685
1704701148401619,0.22026655,-0.35434186,10.25197124,-0.29614350,-0.31318775,-0.01917476
1704701148403617,0.19153613,-0.34476504,10.26633644,-0.34940675,-0.28975192,-0.03728426
1704701148405676,0.19153613,-0.36391866,10.28549004,-0.37071201,-0.27590349,-0.02769688
1704701148407632,0.16759412,-0.34955344,10.27112484,-0.41758364,-0.25672874,-0.03195793
1704701148409621,0.15322891,-0.34476504,10.29985619,-0.44847631,-0.23542345,-0.03408846
1704701148411639,0.14844051,-0.34955344,10.31422138,-0.44954160,-0.22264026,-0.02237055
1704701148413773,0.11492168,-0.32561144,10.31422138,-0.46125951,-0.21411815,-0.00426106
1704701148415637,0.11013328,-0.32082301,10.35731697,-0.48043427,-0.18961707,-0.00319579
1704701148417624,0.09097967,-0.31124622,10.35252857,-0.47830373,-0.18322548,-0.00213053
1704701148419591,0.07661445,-0.28730419,10.36210537,-0.50493532,-0.16831177,0.00426106
1704701148421654,0.07661445,-0.27772740,10.39083576,-0.53263223,-0.15339808,0.00639159
1704701148423691,0.04309563,-0.26336220,10.40041256,-0.52837116,-0.15339808,0.00426106
1704701148425671,0.04788403,-0.23463176,10.42914295,-0.53582799,-0.12357067,0.00532632
1704701148427594,0.03830723,-0.21547815,10.44350815,-0.53369749,-0.08948221,-0.00213053
1704701148429641,0.01915361,-0.20111294,10.46266174,-0.51239222,-0.08948221,0.00426106
1704701148431668,0.02873042,-0.17238252,10.49139214,-0.49747849,-0.08522116,-0.00426106
1704701148433611,0.00957681,-0.15801731,10.50575733,-0.47297740,-0.05219796,0.00106526
1704701148435634,0.00957681,-0.13886370,10.52491093,-0.45912898,-0.04261058,0.00319579
1704701148437594,0.00957681,-0.10534488,10.55364132,-0.44528052,-0.03728426,0.01065264
1704701148439631,0.00000000,-0.09097967,10.56800652,-0.42823631,-0.01491370,0.00106526
1704701148441733,0.00478840,-0.06703765,10.58716011,-0.39840889,0.00106526,0.00106526
1704701148443604,-0.00478840,-0.03830723,10.59673691,-0.37177730,0.01171791,0.00852212
1704701148445578,-0.00957681,-0.02394202,10.60152531,-0.34727621,0.02450108,0.01597897
1704701148447628,-0.01436521,0.00478840,10.61589050,-0.30892667,0.04580637,0.01278317
1704701148449643,-0.02394202,0.01915361,10.61589050,-0.29720879,0.06178534,0.01065264
1704701148451615,-0.02394202,0.03351882,10.61589050,-0.27057716,0.07776430,0.02769688
1704701148453644,-0.02873042,0.05746084,10.61589050,-0.23116238,0.07989483,0.02556635
1704701148455703,-0.03830723,0.06703765,10.60152531,-0.21837921,0.08309063,0.03089267
1704701148457760,-0.03351882,0.08140286,10.60631371,-0.18748654,0.10546118,0.02769688
1704701148459620,-0.04309563,0.09576806,10.60631371,-0.15233281,0.12144014,0.04154531
1704701148461647,-0.03351882,0.10534488,10.58716011,-0.12463594,0.12996227,0.03834952
1704701148463727,-0.03830723,0.11971009,10.59194851,-0.10333065,0.13209279,0.04261058
1704701148465640,-0.04309563,0.12928689,10.58716011,-0.06391586,0.15020229,0.03408846
1704701148467615,-0.02873042,0.13886370,10.58237171,-0.03089267,0.15552860,0.03089267
1704701148469589,-0.04309563,0.14365210,10.59194851,-0.01384844,0.16405073,0.02237055
1704701148471661,-0.03351882,0.15322891,10.57279491,-0.00319579,0.16298546,0.01065264
1704701148473660,-0.02873042,0.15322891,10.57758331,0.02556635,0.15872440,-0.00213053
1704701148475654,-0.03830723,0.15322891,10.58716011,0.05539375,0.15233281,0.00745685
1704701148477603,-0.01436521,0.16280572,10.57279491,0.07669904,0.13848437,0.01171791
1704701148479615,-0.02394202,0.15801731,10.58716011,0.09800433,0.13954964,0.00852212
1704701148481691,-0.01436521,0.15801731,10.58237171,0.12783173,0.14381070,0.00106526
1704701148483629,0.00478840,0.16280572,10.57279491,0.15233281,0.13954964,-0.00532632
1704701148485619,-0.00478840,0.15801731,10.59673691,0.16085494,0.12144014,-0.00426106
1704701148487603,0.00957681,0.15801731,10.58237171,0.20026971,0.10972223,-0.01704423
1704701148489690,0.01436521,0.15801731,10.58716011,0.23116238,0.10865697,-0.02556635
1704701148491631,0.01915361,0.15322891,10.59673691,0.23861924,0.10226539,-0.02663161
1704701148493646,0.04788403,0.15322891,10.57758331,0.23435818,0.08096009,-0.03089267
1704701148495637,0.04309563,0.14365210,10.59673691,0.24394555,0.05113269,-0.02663161
1704701148497639,0.06224924,0.12928689,10.59194851,0.24820662,0.03195793,-0.02450108
1704701148499659,0.07182605,0.12449849,10.58237171,0.23968449,0.01810949,-0.01917476
1704701148501595,0.07661445,0.11492168,10.60152531,0.23435818,-0.00958738,-0.01278317
1704701148503648,0.10534488,0.09097967,10.58237171,0.23435818,-0.02343582,-0.00319579
1704701148505678,0.09576806,0.08619126,10.58716011,0.23861924,-0.02876214,0.00213053
1704701148507641,0.11013328,0.06703765,10.59194851,0.24074976,-0.04793690,0.00319579
1704701148509631,0.11013328,0.04788403,10.56800652,0.24181503,-0.07456851,0.01384844
1704701148511593,0.10534488,0.04309563,10.57758331,0.24288028,-0.06817693,0.01278317
1704701148513657,0.11971009,0.00957681,10.55842972,0.24074976,-0.07669904,0.01917476
1704701148515632,0.11492168,0.00000000,10.54406452,0.23542345,-0.09800433,0.02663161
1704701148517640,0.11971009,-0.01915361,10.55364132,0.20879182,-0.10972223,0.02769688
1704701148519622,0.11971009,-0.05746084,10.52969933,0.18002969,-0.10759171,0.02343582
1704701148521769,0.11492168,-0.05267244,10.52969933,0.14700650,-0.11398330,0.02982740
1704701148523648,0.12928689,-0.09097967,10.52491093,0.12250541,-0.11611383,0.02024002
1704701148525653,0.11492168,-0.11492168,10.50096893,0.08628642,-0.11504856,0.01810949
1704701148527574,0.12449849,-0.11013328,10.50575733,0.05539375,-0.12463594,0.01810949
1704701148529644,0.11971009,-0.15322891,10.50575733,0.02450108,-0.13528858,0.01278317
1704701148531642,0.11013328,-0.14365210,10.48660374,0.00958738,-0.13635385,0.00745685
1704701148533652,0.12928689,-0.15322891,10.48181534,-0.00852212,-0.13209279,-0.00319579
1704701148535604,0.11013328,-0.19153613,10.47223854,-0.04154531,-0.15020229,0.01065264
1704701148537608,0.11971009,-0.17238252,10.45787334,-0.08628642,-0.14913702,0.00639159
1704701148539620,0.11492168,-0.20111294,10.46266174,-0.11611383,-0.14168017,-0.00426106
1704701148541649,0.10055647,-0.20111294,10.44350815,-0.15659387,-0.14061491,-0.01704423
1704701148543628,0.11492168,-0.19153613,10.42435455,-0.17363811,-0.14807175,-0.02769688
1704701148545587,0.09576806,-0.21547815,10.43393135,-0.18748654,-0.13635385,-0.03941479
1704701148547658,0.09097967,-0.20111294,10.42435455,-0.21198763,-0.12996227,-0.04367584
1704701148549632,0.09576806,-0.20590134,10.41956615,-0.24607609,-0.12570120,-0.04367584
1704701148551812,0.07182605,-0.20590134,10.42435455,-0.26631612,-0.12357067,-0.04367584
1704701148553614,0.08140286,-0.19153613,10.40041256,-0.28762141,-0.10865697,-0.04367584
1704701148555663,0.06703765,-0.20590134,10.40041256,-0.29720879,-0.08948221,-0.04793690
1704701148557620,0.05267244,-0.18674773,10.40041256,-0.30786142,-0.07563377,-0.04154531
1704701148559644,0.05746084,-0.18195933,10.38604736,-0.30573088,-0.07882957,-0.03728426
1704701148561592,0.03830723,-0.18195933,10.39562416,-0.32384038,-0.07563377,-0.03302320
1704701148563665,0.03830723,-0.16280572,10.38604736,-0.34834146,-0.05965481,-0.03515373
1704701148565627,0.03830723,-0.17238252,10.38125896,-0.35792884,-0.05326322,-0.03089267
1704701148567611,0.02394202,-0.14365210,10.39083576,-0.36858150,-0.04580637,-0.02876214
1704701148569624,0.02873042,-0.14365210,10.39083576,-0.36858150,-0.03515373,-0.03302320
1704701148571628,0.02394202,-0.14844051,10.39083576,-0.36432043,-0.02024002,-0.02663161
1704701148573674,0.01436521,-0.11013328,10.38604736,-0.35792884,0.00319579,-0.01704423
1704701148575646,0.02394202,-0.12928689,10.38604736,-0.34727621,0.00958738,-0.00958738
1704701148577574,0.01436521,-0.11492168,10.38604736,-0.32916671,0.01597897,-0.00852212
1704701148579631,0.01436521,-0.08619126,10.37647057,-0.33662355,0.04367584,0.00426106
1704701148581685,0.01915361,-0.10534488,10.38125896,-0.32810146,0.04687164,0.00958738
1704701148583643,0.01436521,-0.06703765,10.37647057,-0.31425300,0.03621899,0.01065264
1704701148585616,0.02394202,-0.06224924,10.36689377,-0.29294771,0.05219796,0.01384844
1704701148587608,0.02394202,-0.06703765,10.37168217,-0.28122982,0.06285060,0.01597897
1704701148589634,0.02394202,-0.02394202,10.35731697,-0.25672874,0.05113269,0.02130529
1704701148591642,0.03351882,-0.03351882,10.35731697,-0.24074976,0.05219796,0.02024002
1704701148593625,0.03351882,-0.02394202,10.35252857,-0.21092236,0.06498113,0.02130529
1704701148595669,0.03830723,0.00478840,10.33337498,-0.19387813,0.06072007,0.01278317
1704701148597632,0.04309563,-0.00957681,10.32858658,-0.16618125,0.05539375,0.00852212
1704701148599629,0.03830723,0.01436521,10.30464458,-0.14700650,0.05965481,0.01384844
1704701148601644,0.04309563,0.02873042,10.29506683,-0.12250541,0.06285060,0.00532632
1704701148603599,0.04788403,0.01915361,10.28549004,-0.10652644,0.05432849,-0.00958738
1704701148605685,0.04309563,0.05267244,10.26154804,-0.09480853,0.05006743,-0.00532632
1704701148607614,0.04788403,0.04788403,10.26633644,-0.07243798,0.05645901,-0.01491370
1704701148609637,0.04788403,0.04309563,10.25675964,-0.05006743,0.06072007,-0.02024002
1704701148611607,0.05267244,0.07661445,10.24718285,-0.03195793,0.05645901,-0.02024002
1704701148613667,0.05746084,0.05267244,10.25197124,-0.01278317,0.04154531,-0.01597897
1704701148615643,0.06224924,0.07182605,10.23760605,-0.01171791,0.03621899,-0.02450108
1704701148617621,0.06703765,0.08619126,10.23760605,0.00852212,0.03941479,-0.02769688
1704701148619596,0.07182605,0.05746084,10.24239445,0.03195793,0.04048005,-0.02024002
1704701148621655,0.07661445,0.08619126,10.22802925,0.04793690,0.02982740,-0.01704423
1704701148623662,0.08140286,0.08140286,10.24239445,0.04687164,0.02237055,-0.02130529
1704701148625641,0.09097967,0.06703765,10.24239445,0.06178534,0.02556635,-0.02876214
1704701148627599,0.09576806,0.09097967,10.23281765,0.08202536,0.01491370,-0.02556635
1704701148629632,0.09576806,0.06703765,10.24239445,0.09267800,0.00852212,-0.02024002
1704701148631662,0.11013328,0.07182605,10.22802925,0.08948221,-0.00639159,-0.02343582
1704701148633674,0.11013328,0.08140286,10.22802925,0.09693906,-0.01065264,-0.02556635
1704701148635622,0.11971009,0.04788403,10.23281765,0.09480853,-0.00745685,-0.01597897
1704701148637612,0.13407530,0.06224924,10.21366405,0.10120012,-0.01810949,-0.01065264
1704701148639791,0.12449849,0.05746084,10.22802925,0.09054748,-0.03728426,-0.00532632
1704701148641771,0.13886370,0.03351882,10.22802925,0.08841695,-0.04154531,-0.01597897
1704701148643644,0.13886370,0.04309563,10.21845245,0.07882957,-0.04154531,-0.01171791
1704701148645646,0.12928689,0.02873042,10.23760605,0.07776430,-0.05432849,-0.00532632
1704701148647623,0.15322891,0.01915361,10.22324085,0.06285060,-0.07350325,-0.00639159
1704701148649652,0.13886370,0.02394202,10.23760605,0.05326322,-0.07669904,-0.01491370
1704701148651620,0.14365210,0.00000000,10.24718285,0.05113269,-0.07456851,-0.01278317
1704701148653640,0.15322891,0.00000000,10.22802925,0.04687164,-0.08948221,-0.01810949
1704701148655663,0.13886370,0.00000000,10.24718285,0.02769688,-0.10013486,-0.01810949
1704701148657611,0.16280572,-0.01915361,10.24718285,0.02130529,-0.10120012,-0.01597897
1704701148659603,0.15801731,-0.02394202,10.23760605,0.02343582,-0.10013486,-0.01917476
1704701148661620,0.14844051,-0.02394202,10.25197124,0.01597897,-0.11078750,-0.01278317
1704701148663695,0.17238252,-0.04309563,10.23760605,0.00639159,-0.11504856,-0.01704423
1704701148665627,0.15322891,-0.03351882,10.25197124,-0.00213053,-0.10972223,-0.00532632
1704701148667618,0.16280572,-0.03830723,10.25197124,-0.00852212,-0.09906960,-0.01171791
1704701148669622,0.17238252,-0.05267244,10.24239445,-0.02450108,-0.10972223,-0.00745685
1704701148671657,0.15322891,-0.02873042,10.25675964,-0.01491370,-0.11185277,-0.01384844
1704701148673662,0.17238252,-0.05267244,10.24718285,-0.01810949,-0.09800433,-0.00745685
1704701148675646,0.16280572,-0.06703765,10.24718285,-0.04474111,-0.09054748,-0.01704423
1704701148677594,0.15322891,-0.04309563,10.25197124,-0.05645901,-0.09800433,-0.01171791
1704701148679620,0.17238252,-0.08140286,10.23760605,-0.05113269,-0.09800433,-0.00639159
1704701148681797,0.15801731,-0.06703765,10.24239445,-0.04793690,-0.08735169,-0.01171791
1704701148683648,0.15801731,-0.06224924,10.24239445,-0.05858954,-0.08309063,-0.01917476
1704701148685689,0.16759412,-0.10055647,10.23281765,-0.06817693,-0.07989483,-0.00639159
1704701148687597,0.14844051,-0.06224924,10.23760605,-0.06498113,-0.07882957,-0.00426106
1704701148689712,0.16280572,-0.08619126,10.22802925,-0.05219796,-0.07243798,-0.00319579
1704701148691656,0.15801731,-0.10534488,10.22802925,-0.07030746,-0.06391586,-0.00319579
1704701148693628,0.14365210,-0.06703765,10.23281765,-0.07776430,-0.05645901,0.00106526
1704701148695636,0.15322891,-0.11492168,10.23281765,-0.07137272,-0.04900216,0.00000000
1704701148697627,0.13886370,-0.09576806,10.22802925,-0.07563377,-0.03621899,-0.00532632
1704701148699619,0.13886370,-0.07182605,10.23281765,-0.08841695,-0.02982740,-0.01065264
1704701148701622,0.13886370,-0.11492168,10.24239445,-0.08415589,-0.02663161,-0.00958738
1704701148703598,0.12928689,-0.07661445,10.24718285,-0.07030746,-0.00745685,-0.01278317
1704701148705697,0.12928689,-0.08619126,10.25675964,-0.07669904,0.01171791,-0.01917476
1704701148707615,0.12449849,-0.10534488,10.26633644,-0.08735169,0.02237055,-0.02237055
1704701148709612,0.11971009,-0.06224924,10.27112484,-0.08735169,0.03195793,-0.01704423
1704701148711651,0.11492168,-0.09576806,10.29027843,-0.08522116,0.04687164,-0.01917476
1704701148713689,0.10534488,-0.07182605,10.29985619,-0.09054748,0.05113269,-0.02024002
1704701148715622,0.11013328,-0.05267244,10.30943298,-0.11078750,0.05645901,-0.01810949
1704701148717607,0.10055647,-0.08619126,10.32858658,-0.10546118,0.06285060,-0.01065264
1704701148719620,0.10534488,-0.05267244,10.32858658,-0.09267800,0.06178534,-0.00639159
1704701148721646,0.10534488,-0.05746084,10.34774017,-0.07989483,0.06391586,0.00639159
1704701148723650,0.10055647,-0.06703765,10.37168217,-0.06817693,0.05326322,0.01491370
1704701148725647,0.11013328,-0.02873042,10.38125896,-0.06285060,0.04580637,-0.00106526
1704701148727648,0.11013328,-0.05267244,10.40998936,-0.06498113,0.05432849,-0.01384844
1704701148729695,0.11971009,-0.03351882,10.42435455,-0.06072007,0.04367584,-0.01704423
1704701148731686,0.12928689,-0.02394202,10.43871975,-0.06072007,0.02556635,-0.01597897
1704701148733641,0.12928689,-0.04788403,10.47702694,-0.05219796,0.02024002,-0.01491370
1704701148735624,0.14365210,-0.01915361,10.48181534,-0.05432849,0.01810949,-0.00426106
1704701148737611,0.14365210,-0.02394202,10.51054573,-0.04793690,0.00426106,-0.00958738
1704701148739658,0.15801731,-0.02873042,10.53448772,-0.04474111,-0.00426106,-0.02343582
1704701148741663,0.16759412,-0.00478840,10.54406452,-0.03834952,-0.02024002,-0.02024002
1704701148743643,0.16759412,-0.02873042,10.57758331,-0.04048005,-0.04048005,-0.01491370
1704701148745657,0.18674773,-0.01915361,10.58716011,-0.03834952,-0.05858954,-0.01810949
1704701148747611,0.18195933,-0.01436521,10.60631371,-0.02769688,-0.06817693,-0.01384844
1704701148749662,0.19153613,-0.02873042,10.62546730,-0.02343582,-0.07563377,-0.02237055
1704701148751658,0.21068975,-0.01436521,10.61589050,-0.02343582,-0.08948221,-0.01704423
1704701148753602,0.20111294,-0.02873042,10.64462090,-0.00639159,-0.11185277,-0.01384844
1704701148755666,0.22026655,-0.02873042,10.64462090,-0.00745685,-0.12996227,-0.02024002
1704701148757641,0.21547815,-0.01915361,10.64462090,-0.00532632,-0.12996227,-0.01704423
1704701148759612,0.22026655,-0.02873042,10.65898609,0.00319579,-0.13528858,-0.01384844
1704701148761608,0.23942018,-0.02873042,10.64462090,0.01597897,-0.14700650,-0.01810949
1704701148763685,0.23463176,-0.02394202,10.64462090,0.00532632,-0.15552860,-0.01704423
1704701148765701,0.22984336,-0.03351882,10.66377449,0.00000000,-0.16298546,-0.01704423
1704701148767617,0.23942018,-0.03351882,10.64940929,0.00000000,-0.16831177,-0.01278317
1704701148769598,0.22984336,-0.03351882,10.65419769,0.00213053,-0.17150757,-0.02343582
1704701148771811,0.24420857,-0.03830723,10.65898609,-0.00426106,-0.17044231,-0.02237055
1704701148773667,0.22984336,-0.03830723,10.65419769,-0.00852212,-0.18535601,-0.03195793
1704701148775646,0.22505496,-0.03830723,10.66377449,-0.01384844,-0.19281286,-0.02450108
1704701148777619,0.24420857,-0.05267244,10.65898609,-0.00852212,-0.18961707,-0.02343582
1704701148779633,0.22505496,-0.04788403,10.65419769,0.00000000,-0.18216021,-0.02556635
1704701148781665,0.22505496,-0.04309563,10.65898609,0.00852212,-0.19068234,-0.02769688
1704701148783675,0.23942018,-0.06224924,10.64940929,0.01278317,-0.20133498,-0.02450108
1704701148785601,0.21547815,-0.04309563,10.65898609,0.02876214,-0.20133498,-0.02024002
1704701148787610,0.22505496,-0.04788403,10.65419769,0.02982740,-0.19813919,-0.02024002
1704701148789678,0.21547815,-0.05746084,10.64462090,0.02663161,-0.19281286,-0.00958738
1704701148791652,0.20111294,-0.03351882,10.64462090,0.05113269,-0.19920444,-0.00426106
1704701148793642,0.21547815,-0.04788403,10.63025570,0.06072007,-0.19707392,-0.00852212
1704701148795648,0.19632454,-0.03830723,10.63025570,0.06072007,-0.19387813,-0.00958738
1704701148797607,0.19632454,-0.01915361,10.62546730,0.05965481,-0.18961707,0.00532632
1704701148799637,0.20111294,-0.04309563,10.61110210,0.06285060,-0.18002969,0.00958738
1704701148801754,0.17717093,-0.01436521,10.60631371,0.06178534,-0.17150757,0.01917476
1704701148803640,0.19153613,-0.03830723,10.59194851,0.06072007,-0.16192019,0.01810949
1704701148805665,0.17717093,-0.02873042,10.58716011,0.05432849,-0.16298546,0.01704423
1704701148807623,0.15801731,0.00000000,10.58237171,0.06285060,-0.15552860,0.02024002
1704701148809614,0.16759412,-0.02873042,10.56800652,0.05539375,-0.14594123,0.01704423
1704701148811633,0.13886370,0.00957681,10.55364132,0.05432849,-0.13102752,0.02876214
1704701148813686,0.14365210,0.00478840,10.54885292,0.05326322,-0.12570120,0.02556635
1704701148815738,0.14365210,-0.03351882,10.54406452,0.05752428,-0.12037488,0.01704423
1704701148817630,0.12449849,0.00478840,10.52012253,0.04687164,-0.10652644,0.00532632
1704701148819607,0.12928689,-0.01436521,10.52012253,0.04367584,-0.10013486,0.01491370
1704701148821675,0.11971009,-0.02873042,10.51054573,0.04900216,-0.09587380,0.01810949
1704701148823652,0.11013328,0.00000000,10.49139214,0.04367584,-0.08841695,0.00745685
1704701148825646,0.11971009,-0.03830723,10.48660374,0.02769688,-0.08096009,0.00426106
1704701148827581,0.10534488,-0.02394202,10.46745014,0.02450108,-0.07243798,0.00000000
1704701148829608,0.10534488,-0.01915361,10.45787334,0.02024002,-0.07243798,-0.00745685
1704701148831696,0.10534488,-0.05746084,10.45308495,0.00958738,-0.05858954,-0.01704423
1704701148833662,0.10055647,-0.02394202,10.42914295,-0.00958738,-0.05645901,-0.01917476
1704701148835635,0.10055647,-0.04788403,10.43393135,-0.00532632,-0.05326322,-0.01171791
1704701148837614,0.09576806,-0.06224924,10.42435455,-0.00745685,-0.05006743,-0.00958738
1704701148839655,0.09576806,-0.03830723,10.40998936,-0.01704423,-0.03834952,-0.01597897
1704701148841757,0.09576806,-0.07182605,10.42435455,-0.02024002,-0.03515373,-0.02024002
1704701148843642,0.09576806,-0.06224924,10.40041256,-0.01810949,-0.03408846,-0.02343582
1704701148845638,0.10055647,-0.04788403,10.40041256,-0.00745685,-0.02450108,-0.02876214
1704701148847618,0.10055647,-0.07661445,10.40520096,-0.00852212,-0.02556635,-0.02663161
1704701148849629,0.10534488,-0.05267244,10.37647057,-0.01917476,-0.03089267,-0.02237055
1704701148851673,0.10534488,-0.06224924,10.38604736,-0.02024002,-0.02237055,-0.02130529
1704701148853630,0.11492168,-0.06703765,10.37168217,0.00000000,-0.01491370,-0.02663161
1704701148855669,0.11971009,-0.04788403,10.35731697,0.00639159,-0.00958738,-0.02556635
1704701148857632,0.11971009,-0.05746084,10.35731697,-0.00106526,-0.00958738,-0.03302320
1704701148859696,0.12449849,-0.05267244,10.32858658,0.00639159,-0.01491370,-0.03728426
1704701148861641,0.12449849,-0.04309563,10.33816338,0.01065264,-0.01171791,-0.04261058
1704701148863667,0.12928689,-0.05267244,10.32858658,0.01065264,-0.00319579,-0.04154531
1704701148865655,0.13407530,-0.02873042,10.29506683,0.00639159,-0.00745685,-0.04367584
1704701148867633,0.13407530,-0.02873042,10.30943298,0.00852212,-0.01810949,-0.04154531
1704701148869623,0.14365210,-0.03351882,10.29027843,0.01171791,-0.01597897,-0.03515373
1704701148871679,0.13886370,-0.00957681,10.27591324,0.02769688,-0.01278317,-0.03195793
1704701148873646,0.14844051,-0.01915361,10.28549004,0.02982740,-0.01278317,-0.02450108
1704701148875655,0.15801731,-0.01915361,10.25197124,0.03834952,-0.01384844,-0.02556635
1704701148877605,0.15801731,-0.00478840,10.25675964,0.04580637,-0.01704423,-0.02769688
1704701148879638,0.16759412,-0.01436521,10.23281765,0.05432849,-0.02024002,-0.02556635
1704701148881690,0.16280572,0.00478840,10.22802925,0.05006743,-0.01917476,-0.02130529
1704701148883671,0.17717093,0.00000000,10.22802925,0.03941479,-0.02343582,-0.02663161
1704701148885668,0.18195933,-0.01436521,10.19929886,0.02876214,-0.02556635,-0.02024002
1704701148887613,0.18195933,0.00000000,10.19929886,0.02769688,-0.02876214,-0.01597897
1704701148889658,0.19153613,-0.01436521,10.18972206,0.01704423,-0.03621899,-0.01278317
1704701148891682,0.18674773,-0.01436521,10.17535686,0.02130529,-0.03834952,-0.01065264
1704701148893632,0.19153613,0.00478840,10.17535686,0.01491370,-0.03728426,-0.00319579
1704701148895644,0.20111294,-0.02394202,10.15620327,0.02982740,-0.03515373,-0.00213053
1704701148897639,0.19153613,0.00000000,10.15141487,0.01384844,-0.04048005,0.00106526
1704701148899647,0.20111294,0.00000000,10.15620327,0.01065264,-0.04793690,0.00000000
1704701148901669,0.19632454,-0.02394202,10.14662647,0.01278317,-0.04580637,0.00852212
1704701148903701,0.19632454,0.01436521,10.14662647,0.01810949,-0.04793690,0.00532632
1704701148905694,0.20111294,-0.00957681,10.13704967,0.02343582,-0.05219796,-0.00532632
1704701148907628,0.19632454,-0.00957681,10.13226128,0.02769688,-0.05752428,-0.00639159
1704701148909656,0.19632454,0.01436521,10.12747288,0.03302320,-0.05858954,-0.00106526
1704701148911710,0.19632454,-0.01436521,10.12747288,0.05219796,-0.06072007,-0.00213053
1704701148913713,0.19632454,0.01436521,10.12747288,0.05539375,-0.06072007,0.00000000
1704701148915661,0.20111294,0.02394202,10.12268448,0.05752428,-0.05858954,0.00319579
1704701148917629,0.19153613,0.00957681,10.12747288,0.07030746,-0.05965481,0.00852212
1704701148919617,0.19632454,0.04309563,10.12268448,0.08522116,-0.06711166,0.00745685
1704701148921753,0.19153613,0.02873042,10.13226128,0.10439591,-0.06498113,0.01384844
1704701148923630,0.18674773,0.03830723,10.14183807,0.10226539,-0.05965481,0.00745685
1704701148925743,0.19153613,0.05746084,10.14183807,0.10439591,-0.05432849,0.01597897
1704701148927591,0.18674773,0.03351882,10.15620327,0.08628642,-0.05006743,0.02556635
1704701148929685,0.18674773,0.05267244,10.16099167,0.09054748,-0.05539375,0.01917476
1704701148931681,0.18195933,0.05267244,10.17535686,0.08948221,-0.05432849,0.01171791
1704701148933713,0.17717093,0.03830723,10.19451046,0.09161274,-0.05326322,0.01171791
1704701148935636,0.17717093,0.06703765,10.18972206,0.09054748,-0.05219796,0.00745685
1704701148937625,0.16759412,0.04788403,10.20887566,0.09054748,-0.04367584,0.00639159
1704701148939651,0.16759412,0.04788403,10.21845245,0.09374327,-0.03089267,0.00319579
1704701148941584,0.16280572,0.05267244,10.21845245,0.07350325,-0.02663161,0.00426106
1704701148943671,0.14844051,0.03351882,10.24718285,0.06285060,-0.02556635,0.01065264
1704701148945647,0.14844051,0.04309563,10.24718285,0.06498113,-0.02556635,0.01171791
1704701148947764,0.14365210,0.03351882,10.25675964,0.07350325,-0.01171791,0.00213053
1704701148949641,0.13886370,0.02394202,10.28070164,0.07456851,-0.00852212,0.00852212
1704701148951730,0.13886370,0.03351882,10.27591324,0.06817693,-0.00958738,0.00532632
1704701148953651,0.12449849,0.01915361,10.29985619,0.07137272,-0.00852212,0.01278317
1704701148955667,0.12928689,0.01915361,10.30464458,0.06604639,0.00000000,0.00106526
1704701148957640,0.12449849,0.01436521,10.30464458,0.05858954,0.00532632,0.01065264
1704701148959647,0.11971009,0.00957681,10.32858658,0.05432849,0.00639159,-0.00106526
1704701148961627,0.12449849,0.00957681,10.31900978,0.06285060,0.00213053,-0.00532632
1704701148963682,0.11492168,0.00478840,10.33337498,0.07137272,0.00745685,-0.00958738
1704701148965698,0.11492168,0.00957681,10.35252857,0.05752428,0.00852212,-0.00532632
1704701148967595,0.11492168,0.00478840,10.34295177,0.06072007,0.00213053,-0.00106526
1704701148969723,0.11492168,0.00478840,10.36689377,0.06498113,0.00532632,-0.00106526
1704701148971654,0.11971009,0.00957681,10.36210537,0.06924219,0.01491370,-0.00852212
1704701148973712,0.11492168,0.00478840,10.36689377,0.07989483,0.00532632,-0.00958738
1704701148975650,0.11971009,0.01436521,10.38604736,0.08096009,0.00213053,-0.00426106
1704701148977615,0.11971009,0.00478840,10.38125896,0.08202536,0.00319579,-0.00958738
1704701148979635,0.11971009,0.01436521,10.39083576,0.08309063,0.00319579,-0.01278317
1704701148981663,0.12449849,0.01915361,10.40520096,0.09267800,0.00639159,-0.00426106
1704701148983775,0.11492168,0.00478840,10.40041256,0.08735169,0.00958738,-0.00958738
1704701148985596,0.11971009,0.03351882,10.41956615,0.07669904,0.00745685,-0.01491370
1704701148987621,0.11492168,0.01436521,10.41956615,0.08309063,0.01384844,-0.01171791
1704701148989659,0.11013328,0.01436521,10.41956615,0.08202536,0.02663161,-0.01597897
1704701148991867,0.11971009,0.03351882,10.42914295,0.07669904,0.01917476,-0.02024002
1704701148993637,0.10055647,0.00478840,10.42914295,0.07030746,0.00319579,-0.01384844
1704701148995649,0.11013328,0.02873042,10.43871975,0.06817693,0.00639159,-0.01171791
1704701148997667,0.10534488,0.01915361,10.43871975,0.06817693,0.01278317,-0.01810949
1704701148999635,0.10055647,0.00478840,10.43393135,0.05965481,0.00639159,-0.01810949
1704701149001621,0.11971009,0.03830723,10.43871975,0.06817693,0.00213053,-0.02130529
1704701149003651,0.10055647,0.00478840,10.43871975,0.08096009,0.00639159,-0.01065264
1704701149005716,0.11492168,0.02394202,10.43393135,0.07563377,0.00745685,-0.01065264
1704701149007622,0.11971009,0.02873042,10.43393135,0.07563377,0.00745685,-0.00426106
1704701149009701,0.11013328,0.00000000,10.42914295,0.09374327,0.00958738,-0.00958738
1704701149011605,0.13886370,0.04309563,10.41477776,0.09161274,0.01384844,-0.00532632
1704701149013667,0.11971009,0.01436521,10.41956615,0.09267800,0.01491370,-0.01171791
1704701149015659,0.12449849,0.02394202,10.40998936,0.09267800,0.00852212,-0.00958738
1704701149017634,0.13407530,0.03830723,10.40520096,0.09267800,0.01065264,-0.01065264
1704701149019637,0.11971009,0.00957681,10.40998936,0.09267800,0.01171791,-0.00958738
1704701149021668,0.14844051,0.04309563,10.39083576,0.08841695,0.01065264,-0.00852212
1704701149023763,0.12928689,0.02394202,10.39562416,0.09374327,0.00319579,-0.00319579
1704701149025672,0.12928689,0.02394202,10.39083576,0.10013486,0.00426106,-0.00426106
1704701149027717,0.14365210,0.04309563,10.37647057,0.10333065,0.00958738,-0.00745685
1704701149029631,0.12449849,0.01915361,10.38125896,0.08202536,0.01704423,0.00213053
1704701149031759,0.14844051,0.03830723,10.36210537,0.08735169,0.01384844,0.00532632
1704701149033653,0.13886370,0.03351882,10.35731697,0.10226539,0.01810949,0.00319579
1704701149035552,0.12928689,0.02394202,10.36210537,0.09693906,0.01597897,0.00532632
1704701149037608,0.14365210,0.04309563,10.33816338,0.09480853,0.01171791,0.01171791
1704701149039656,0.11971009,0.02394202,10.34774017,0.10120012,0.02556635,0.00639159
1704701149041783,0.13407530,0.04309563,10.33337498,0.11398330,0.03302320,-0.00213053
1704701149043617,0.13407530,0.04309563,10.31900978,0.11291803,0.02982740,-0.00426106
1704701149045776,0.11971009,0.03830723,10.33337498,0.10865697,0.02237055,-0.00106526
1704701149047629,0.13407530,0.04788403,10.31422138,0.10546118,0.02343582,-0.00213053
1704701149049749,0.11971009,0.02873042,10.31422138,0.12463594,0.02982740,-0.00426106
1704701149051653,0.12449849,0.04788403,10.30943298,0.12783173,0.03302320,-0.00426106
1704701149053653,0.13407530,0.04309563,10.29027843,0.12463594,0.02876214,-0.00639159
1704701149055700,0.12449849,0.03351882,10.30464458,0.12144014,0.02237055,-0.00426106
1704701149057619,0.12928689,0.04788403,10.29027843,0.11504856,0.03302320,-0.00426106
1704701149059643,0.12449849,0.02873042,10.28549004,0.11291803,0.03834952,-0.00319579
1704701149061631,0.12449849,0.04309563,10.28070164,0.10120012,0.03195793,0.00106526
1704701149063857,0.12928689,0.02873042,10.26633644,0.09800433,0.02982740,-0.00106526
1704701149065673,0.12928689,0.01915361,10.27112484,0.08522116,0.03408846,-0.00639159
1704701149067589,0.12449849,0.03351882,10.27112484,0.08415589,0.03408846,-0.00213053
1704701149069651,0.12928689,0.00478840,10.26154804,0.07989483,0.02982740,0.00639159
1704701149071673,0.12928689,0.01915361,10.25675964,0.07456851,0.04048005,-0.00319579
1704701149073629,0.12449849,0.01436521,10.24718285,0.06924219,0.04580637,-0.00319579
1704701149075655,0.12928689,-0.00478840,10.24239445,0.06924219,0.04261058,-0.00106526
1704701149077645,0.12449849,0.01915361,10.23760605,0.06817693,0.03834952,-0.00213053
1704701149079652,0.11971009,-0.00478840,10.23760605,0.06924219,0.02876214,-0.00426106
1704701149081750,0.12928689,0.00478840,10.22324085,0.06924219,0.03621899,-0.01065264
1704701149083627,0.11971009,0.01436521,10.22324085,0.07137272,0.04154531,-0.01384844
1704701149085819,0.11971009,-0.00478840,10.22802925,0.07350325,0.03621899,-0.01065264
1704701149087611,0.12928689,0.00957681,10.20887566,0.06072007,0.02024002,-0.01171791
1704701149089787,0.11971009,0.01436521,10.21366405,0.06391586,0.01810949,-0.01065264
1704701149091655,0.12928689,-0.00478840,10.20408726,0.07989483,0.02663161,-0.00852212
1704701149093651,0.12449849,0.00478840,10.19929886,0.07989483,0.02343582,-0.00639159
1704701149095648,0.11013328,0.00957681,10.20408726,0.06391586,0.01810949,-0.00958738
1704701149097652,0.12449849,-0.00478840,10.18972206,0.06604639,0.00745685,-0.00958738
1704701149099638,0.11013328,0.00957681,10.18014526,0.07350325,0.00213053,-0.00213053
1704701149101670,0.10534488,0.00478840,10.18493366,0.05858954,0.00745685,-0.00745685
1704701149103661,0.11492168,0.00478840,10.16099167,0.05326322,0.00532632,-0.00106526
1704701149105667,0.09576806,0.01436521,10.16099167,0.05432849,-0.00426106,0.00000000
1704701149107632,0.10534488,0.00478840,10.15141487,0.04900216,-0.00213053,-0.00319579
1704701149109611,0.10055647,0.01436521,10.14183807,0.04367584,0.00106526,-0.00745685
1704701149111676,0.09097967,0.02394202,10.14183807,0.04687164,-0.00319579,0.00106526
1704701149113647,0.10055647,0.01436521,10.11310768,0.04367584,-0.01065264,-0.00213053
1704701149115663,0.09097967,0.02394202,10.10831928,0.04580637,-0.00426106,-0.00532632
1704701149117592,0.08619126,0.02873042,10.09874249,0.04261058,0.00106526,-0.00639159
1704701149119713,0.08140286,0.02873042,10.07958889,0.05432849,-0.01171791,0.00106526
1704701149121791,0.07182605,0.03830723,10.07001209,0.06178534,-0.01597897,0.00000000
1704701149123632,0.08140286,0.02873042,10.05085850,0.05752428,-0.00639159,0.00106526
1704701149125679,0.06703765,0.04788403,10.05085850,0.05113269,0.00213053,0.00319579
1704701149127614,0.06224924,0.04788403,10.04607010,0.05006743,-0.00639159,0.00852212
1704701149129764,0.06703765,0.03351882,10.03649330,0.04687164,-0.01491370,0.00745685
1704701149131654,0.05267244,0.05267244,10.03170490,0.03941479,-0.01171791,0.00000000
1704701149133660,0.04788403,0.04788403,10.02691650,0.03408846,-0.00426106,0.00000000
1704701149135619,0.05267244,0.03351882,10.02691650,0.03728426,-0.00106526,-0.00213053
1704701149137648,0.04309563,0.05746084,10.02212811,0.03621899,-0.00426106,0.00426106
1704701149139653,0.03351882,0.04788403,10.02212811,0.03621899,-0.01065264,0.00213053
1704701149141649,0.04309563,0.04788403,10.02212811,0.02982740,-0.00852212,0.00532632
1704701149143712,0.02394202,0.06224924,10.02212811,0.04261058,-0.00745685,0.00426106
1704701149145625,0.02873042,0.05267244,10.02691650,0.04367584,-0.00532632,0.00213053
1704701149147632,0.03351882,0.06224924,10.02212811,0.03408846,-0.00106526,-0.00319579
1704701149149614,0.01436521,0.06703765,10.03170490,0.03195793,0.00000000,-0.00106526
1704701149151661,0.03351882,0.06224924,10.03649330,0.04154531,0.00426106,0.00532632
1704701149153628,0.01915361,0.07661445,10.03170490,0.03302320,0.01171791,0.00745685
1704701149155720,0.01915361,0.08140286,10.04607010,0.02556635,0.01917476,0.00639159
1704701149157641,0.03830723,0.07661445,10.04128170,0.02343582,0.02450108,-0.00106526
1704701149159784,0.00957681,0.08619126,10.04607010,0.03089267,0.03195793,0.00000000
1704701149161606,0.03351882,0.08619126,10.06043530,0.02556635,0.03195793,-0.00745685
1704701149163683,0.01436521,0.09097967,10.05564690,0.01810949,0.04900216,-0.00319579
1704701149165700,0.01915361,0.10055647,10.06522369,0.02450108,0.05858954,-0.00106526
1704701149167595,0.04788403,0.08619126,10.06043530,0.03408846,0.05965481,0.00319579
1704701149169646,0.02873042,0.09097967,10.06043530,0.03621899,0.06285060,0.00426106
1704701149171663,0.04788403,0.11013328,10.07001209,0.03728426,0.06391586,0.00852212
1704701149173664,0.05267244,0.07661445,10.06522369,0.05645901,0.06285060,0.00319579
1704701149175639,0.04309563,0.10055647,10.07480049,0.06178534,0.07563377,0.00532632
1704701149177625,0.07182605,0.09576806,10.07480049,0.05752428,0.09161274,-0.00426106
1704701149179644,0.06224924,0.07182605,10.07480049,0.06498113,0.08628642,-0.00319579
1704701149181709,0.07661445,0.10534488,10.08437729,0.06924219,0.08415589,-0.00106526
1704701149183682,0.08140286,0.06703765,10.08437729,0.06817693,0.09161274,0.01171791
1704701149185644,0.08619126,0.07661445,10.09395409,0.06817693,0.10439591,-0.00213053
1704701149187617,0.09576806,0.09097967,10.09395409,0.06924219,0.10120012,0.00106526
1704701149189678,0.10055647,0.05267244,10.09395409,0.06817693,0.10226539,-0.00532632
1704701149191663,0.11492168,0.09097967,10.09874249,0.07882957,0.09161274,0.00106526
1704701149193613,0.11013328,0.07182605,10.10831928,0.07989483,0.08948221,-0.00426106
1704701149195664,0.12928689,0.06224924,10.11789608,0.07989483,0.09480853,-0.00106526
1704701149197641,0.13407530,0.09097967,10.11789608,0.09267800,0.10013486,-0.00426106
1704701149199688,0.13407530,0.05746084,10.13226128,0.09693906,0.09480853,-0.00106526
1704701149201756,0.16280572,0.06703765,10.13226128,0.08628642,0.08522116,-0.00639159
1704701149203661,0.13886370,0.07182605,10.14183807,0.08309063,0.08096009,-0.01491370
1704701149205798,0.16280572,0.04788403,10.16099167,0.09906960,0.08096009,-0.01384844
1704701149207626,0.16759412,0.07182605,10.14662647,0.10652644,0.08096009,-0.00532632
1704701149209775,0.15322891,0.06224924,10.16099167,0.09693906,0.07989483,-0.00532632
1704701149211605,0.18674773,0.05267244,10.15620327,0.09374327,0.07137272,-0.00532632
1704701149213670,0.15801731,0.06703765,10.16099167,0.10439591,0.05219796,-0.00532632
1704701149215670,0.17717093,0.05746084,10.17056847,0.11078750,0.05006743,-0.00532632
1704701149217653,0.18674773,0.05746084,10.15141487,0.12144014,0.04900216,0.00000000
1704701149219666,0.16280572,0.07182605,10.16099167,0.10865697,0.04474111,-0.00213053
1704701149221667,0.21068975,0.05746084,10.16099167,0.09374327,0.03941479,-0.00532632
1704701149223697,0.17717093,0.06224924,10.15141487,0.09693906,0.02982740,-0.00532632
1704701149225662,0.19153613,0.07182605,10.17056847,0.09267800,0.02237055,0.00000000
1704701149227619,0.20590134,0.04788403,10.16099167,0.08628642,0.01278317,-0.00106526
1704701149229739,0.16759412,0.07661445,10.16578007,0.09161274,0.00532632,-0.00319579
1704701149231791,0.21547815,0.06703765,10.17535686,0.09161274,-0.00426106,0.00000000
1704701149233680,0.18195933,0.04788403,10.16578007,0.07669904,-0.01597897,0.00106526
1704701149235656,0.19153613,0.08619126,10.18014526,0.07030746,-0.02024002,0.00426106
1704701149237614,0.20111294,0.04788403,10.18493366,0.07030746,-0.02876214,0.00106526
1704701149239654,0.17238252,0.06703765,10.18493366,0.07882957,-0.02450108,-0.00106526
1704701149241652,0.20111294,0.08619126,10.19451046,0.08096009,-0.02982740,-0.00532632
1704701149243691,0.17717093,0.04788403,10.19929886,0.07030746,-0.03621899,-0.00852212
1704701149245641,0.18674773,0.09097967,10.20887566,0.06924219,-0.04474111,-0.00958738
1704701149247648,0.17238252,0.06703765,10.21845245,0.05965481,-0.04474111,-0.00745685
1704701149249628,0.17238252,0.06224924,10.21845245,0.05006743,-0.04474111,-0.00958738
1704701149251655,0.16280572,0.07182605,10.23281765,0.05113269,-0.05752428,-0.00745685
1704701149253635,0.15801731,0.05267244,10.23760605,0.04474111,-0.06072007,-0.00319579
1704701149255551,0.17717093,0.07661445,10.24239445,0.03515373,-0.07137272,-0.00532632
1704701149257629,0.14365210,0.05267244,10.26154804,0.03195793,-0.07030746,-0.00958738
1704701149259636,0.16280572,0.05267244,10.26154804,0.02982740,-0.06498113,-0.01171791
1704701149261834,0.15801731,0.07182605,10.25197124,0.02343582,-0.05752428,-0.00958738
1704701149263703,0.14844051,0.05267244,10.27591324,0.01704423,-0.07456851,-0.00639159
1704701149265652,0.15322891,0.05746084,10.27112484,0.01917476,-0.07137272,-0.00106526
1704701149267637,0.11492168,0.06703765,10.27112484,-0.00106526,-0.05539375,-0.00213053
1704701149269637,0.13407530,0.05746084,10.28549004,-0.00106526,-0.05965481,-0.00532632
1704701149271671,0.12449849,0.05746084,10.27112484,0.00106526,-0.05539375,-0.00852212
1704701149273660,0.09576806,0.06703765,10.28070164,0.00213053,-0.05219796,-0.00426106
1704701149275673,0.12449849,0.04309563,10.28549004,0.00106526,-0.05432849,-0.00532632
1704701149277615,0.07661445,0.05267244,10.27591324,-0.00106526,-0.04900216,-0.00426106
1704701149279639,0.09097967,0.06224924,10.29027843,0.00106526,-0.04154531,0.00639159
1704701149281907,0.08619126,0.03830723,10.28070164,-0.00426106,-0.05006743,0.00000000
1704701149283684,0.07661445,0.06703765,10.28549004,-0.01810949,-0.03621899,-0.00319579
1704701149285654,0.08619126,0.05267244,10.28549004,-0.01917476,-0.04048005,-0.00639159
1704701149287622,0.05267244,0.04788403,10.27112484,-0.00106526,-0.04793690,-0.01278317
1704701149289677,0.06224924,0.07661445,10.27591324,0.01065264,-0.04048005,-0.01597897
1704701149291679,0.06703765,0.04309563,10.27591324,0.01278317,-0.03302320,-0.00532632
1704701149293637,0.04788403,0.07182605,10.26154804,0.01917476,-0.02769688,-0.00532632
1704701149295664,0.06224924,0.07661445,10.27112484,0.02024002,-0.02769688,-0.01065264
1704701149297642,0.04309563,0.05267244,10.26633644,0.00958738,-0.02769688,-0.00213053
1704701149299612,0.05267244,0.09097967,10.25675964,0.01810949,-0.02343582,-0.00319579
1704701149301649,0.04309563,0.05746084,10.25197124,0.02450108,-0.01384844,-0.00532632
1704701149303671,0.04788403,0.07182605,10.24239445,0.02556635,-0.00639159,-0.00852212
1704701149305702,0.04788403,0.08619126,10.23760605,0.02769688,-0.00639159,-0.00745685
1704701149307618,0.03830723,0.06703765,10.23760605,0.04048005,-0.00852212,-0.00639159
1704701149309658,0.04309563,0.08140286,10.22324085,0.04261058,-0.00639159,0.00000000
1704701149311646,0.03351882,0.07661445,10.22324085,0.04687164,0.01491370,-0.00426106
1704701149313694,0.04309563,0.07661445,10.21366405,0.04900216,0.01065264,-0.00213053
1704701149315743,0.03830723,0.08619126,10.19929886,0.05006743,0.00532632,-0.00639159
1704701149317636,0.03351882,0.08619126,10.20887566,0.05006743,-0.00213053,0.00106526
1704701149319623,0.03830723,0.08619126,10.19451046,0.06072007,0.00532632,-0.00426106
1704701149321657,0.02873042,0.09576806,10.18493366,0.06391586,0.00639159,0.00319579
1704701149323668,0.03830723,0.10055647,10.18493366,0.06817693,0.00852212,-0.00639159
1704701149325658,0.03351882,0.10055647,10.16578007,0.07776430,0.01171791,-0.00213053
1704701149327621,0.03830723,0.11971009,10.15620327,0.07137272,0.00639159,-0.01384844
1704701149329648,0.04309563,0.11013328,10.15141487,0.07669904,-0.00852212,-0.00106526
1704701149331637,0.02873042,0.11492168,10.12747288,0.07776430,-0.01278317,-0.00958738
1704701149333677,0.04788403,0.12449849,10.12747288,0.07350325,-0.00213053,-0.00852212
1704701149335645,0.03830723,0.10055647,10.10831928,0.05858954,0.00106526,-0.01491370
1704701149337621,0.04309563,0.11971009,10.08437729,0.05645901,-0.01384844,0.00000000
1704701149339655,0.05267244,0.10055647,10.08916569,0.05539375,-0.01810949,-0.00745685
1704701149341657,0.04309563,0.09576806,10.07001209,0.04900216,-0.00852212,-0.00958738
1704701149343639,0.05746084,0.10534488,10.05564690,0.04367584,0.00000000,-0.01384844
1704701149345656,0.05267244,0.08140286,10.05085850,0.03621899,-0.01491370,-0.00532632
1704701149347647,0.05746084,0.08619126,10.03170490,0.04367584,-0.01704423,-0.00745685
1704701149349805,0.06224924,0.08619126,10.03170490,0.04048005,-0.00852212,-0.01171791
1704701149351664,0.06224924,0.08140286,10.00776291,0.03728426,-0.00426106,-0.01491370
1704701149353667,0.06703765,0.08619126,9.99818611,0.04154531,-0.00958738,-0.01597897
1704701149355705,0.06703765,0.07182605,9.99818611,0.03941479,-0.00213053,-0.02343582
1704701149357625,0.07182605,0.07182605,9.98382092,0.02450108,0.00532632,-0.01810949
1704701149359634,0.07661445,0.07661445,9.97424412,0.01810949,-0.00213053,-0.01597897
1704701149361646,0.07182605,0.06703765,9.97424412,0.03515373,-0.00852212,-0.01597897
1704701149363698,0.06703765,0.07182605,9.95987892,0.03728426,0.00639159,-0.01917476
1704701149365664,0.07182605,0.07182605,9.95509052,0.02876214,0.01704423,-0.01810949
1704701149367632,0.07182605,0.07182605,9.95509052,0.03302320,0.00532632,-0.01491370
1704701149369633,0.06703765,0.07182605,9.94072533,0.04580637,0.00213053,-0.01278317
1704701149371690,0.06703765,0.07182605,9.94551373,0.04687164,0.01491370,-0.01704423
1704701149373668,0.06224924,0.07182605,9.94551373,0.04048005,0.01810949,-0.01171791
1704701149375636,0.06703765,0.07661445,9.93593693,0.05219796,0.01704423,-0.00532632
1704701149377626,0.06703765,0.07182605,9.94072533,0.05858954,0.01491370,-0.01171791
1704701149379634,0.06224924,0.06703765,9.93593693,0.05326322,0.01597897,-0.02130529
1704701149381633,0.06224924,0.07182605,9.93114853,0.04048005,0.01491370,-0.01917476
1704701149383644,0.06703765,0.06224924,9.94551373,0.04261058,0.01384844,-0.02343582
1704701149385633,0.06224924,0.06224924,9.93593693,0.04367584,0.01065264,-0.02663161
1704701149387597,0.06703765,0.06224924,9.93114853,0.02876214,0.01065264,-0.02982740
1704701149389670,0.06224924,0.05267244,9.94072533,0.03195793,0.00426106,-0.02450108
1704701149391670,0.06224924,0.05746084,9.93114853,0.04367584,-0.00106526,-0.02450108
1704701149393688,0.06703765,0.04788403,9.94072533,0.04261058,-0.00319579,-0.02663161
1704701149395656,0.06224924,0.04788403,9.93114853,0.02876214,-0.00532632,-0.02556635
1704701149397675,0.06224924,0.04788403,9.93114853,0.02982740,-0.00639159,-0.02130529
1704701149399658,0.06703765,0.03830723,9.94072533,0.02982740,-0.00639159,-0.02343582
1704701149401644,0.05746084,0.03830723,9.93593693,0.02982740,-0.00958738,-0.02663161
1704701149403650,0.06703765,0.03830723,9.94072533,0.02450108,-0.00958738,-0.02556635
1704701149405738,0.05746084,0.03830723,9.94551373,0.02556635,-0.00532632,-0.02130529
1704701149407620,0.05746084,0.03830723,9.94072533,0.03302320,0.00426106,-0.02769688
1704701149409657,0.06703765,0.03351882,9.94551373,0.02982740,-0.00639159,-0.02024002
1704701149411655,0.05746084,0.03830723,9.95509052,0.00745685,-0.01597897,-0.01597897
1704701149413671,0.06703765,0.03351882,9.95509052,0.00745685,-0.00745685,-0.02024002
1704701149415666,0.06224924,0.03351882,9.95509052,0.01810949,0.00106526,-0.02450108
1704701149417631,0.05746084,0.03351882,9.96466732,-0.00639159,-0.00958738,-0.02130529
1704701149419637,0.07182605,0.02873042,9.95987892,-0.01597897,-0.01171791,-0.02556635
1704701149421688,0.06224924,0.02873042,9.97424412,0.00000000,-0.00639159,-0.02343582
1704701149423671,0.06224924,0.02394202,9.97903252,0.01065264,-0.00106526,-0.01171791
1704701149425788,0.06703765,0.02394202,9.97424412,-0.00958738,0.00000000,-0.00958738
1704701149427604,0.06703765,0.02394202,9.99818611,-0.00426106,-0.00639159,-0.01065264
1704701149429664,0.06703765,0.01436521,9.99339771,0.00106526,-0.00426106,-0.01065264
1704701149431635,0.05746084,0.01436521,10.00297451,0.00532632,-0.00319579,-0.00958738
1704701149433637,0.06224924,0.01915361,10.01255131,0.00106526,-0.00213053,-0.00852212
1704701149435655,0.06224924,0.00957681,10.00776291,0.00639159,-0.00106526,-0.00426106
1704701149437562,0.05746084,0.01915361,10.02212811,0.00319579,0.00426106,-0.00319579
1704701149439652,0.05746084,0.01436521,10.01255131,-0.00532632,0.00639159,-0.00852212
1704701149441676,0.05746084,0.00957681,10.01733971,-0.01065264,0.00000000,-0.00106526
1704701149443666,0.05746084,0.01915361,10.02212811,-0.01384844,0.00639159,0.00000000
1704701149445660,0.05267244,0.00478840,10.01733971,-0.01704423,0.01704423,-0.00106526
1704701149447648,0.06224924,0.00957681,10.02212811,-0.00958738,0.01171791,0.00000000
1704701149449666,0.04788403,0.01436521,10.02212811,-0.01065264,0.00639159,0.00639159
1704701149451665,0.05267244,0.00000000,10.02691650,-0.02663161,0.01704423,0.00000000
1704701149453658,0.05746084,0.00957681,10.02691650,-0.02343582,0.02237055,0.00106526
1704701149455705,0.03830723,0.00957681,10.03170490,-0.01704423,0.01065264,0.00426106
1704701149457612,0.06224924,0.00000000,10.03170490,-0.01065264,0.01278317,0.00106526
1704701149459638,0.03830723,0.01915361,10.03170490,-0.01384844,0.02130529,-0.00532632
1704701149461652,0.04788403,0.00478840,10.04128170,-0.02982740,0.02237055,0.00319579
1704701149463724,0.06224924,0.00957681,10.03170490,-0.03621899,0.01704423,0.00426106
1704701149465669,0.02873042,0.02873042,10.04607010,-0.02769688,0.00532632,0.00319579
1704701149467649,0.06703765,0.01436521,10.05085850,-0.03408846,0.01597897,-0.00213053
1704701149469633,0.04788403,0.02873042,10.04128170,-0.04474111,0.01917476,0.00106526
1704701149471678,0.04788403,0.03830723,10.05564690,-0.04154531,0.00639159,0.00213053
1704701149473698,0.07182605,0.02394202,10.04607010,-0.03408846,-0.00852212,0.00213053
1704701149475645,0.03830723,0.04788403,10.05564690,-0.03728426,0.00639159,0.00426106
1704701149477612,0.07661445,0.04309563,10.06043530,-0.05326322,0.00213053,0.00639159
1704701149479653,0.06703765,0.03830723,10.05564690,-0.05006743,-0.00745685,0.00213053
1704701149481894,0.06224924,0.07182605,10.07001209,-0.04900216,-0.00213053,0.00106526
1704701149483667,0.07182605,0.04309563,10.07001209,-0.04048005,-0.00106526,0.00319579
1704701149485659,0.06703765,0.06224924,10.07958889,-0.04154531,-0.00639159,0.00213053
1704701149487636,0.08140286,0.07661445,10.08437729,-0.04474111,-0.00213053,0.00213053
1704701149489668,0.07182605,0.05746084,10.08437729,-0.04261058,0.00426106,0.00426106
1704701149491672,0.07661445,0.08619126,10.09395409,-0.04367584,-0.00639159,0.00000000
1704701149493652,0.07661445,0.07182605,10.09874249,-0.05219796,-0.00426106,-0.00745685
1704701149495680,0.07661445,0.07182605,10.10353088,-0.05006743,-0.00319579,-0.00213053
1704701149497664,0.07661445,0.10055647,10.10831928,-0.04367584,-0.00639159,0.00106526
1704701149499661,0.06703765,0.07182605,10.11789608,-0.03621899,-0.00213053,0.00000000
1704701149501712,0.09097967,0.09576806,10.11789608,-0.04687164,0.00213053,-0.00745685
1704701149503672,0.06224924,0.09576806,10.12268448,-0.04900216,-0.00532632,-0.01171791
1704701149505728,0.08140286,0.08140286,10.12747288,-0.04793690,-0.01171791,-0.00852212
1704701149507689,0.07661445,0.10055647,10.12268448,-0.04580637,-0.00106526,-0.01597897
1704701149509665,0.06224924,0.09576806,10.13704967,-0.05006743,0.00319579,-0.02024002
1704701149511645,0.10534488,0.08619126,10.12268448,-0.04580637,0.01065264,-0.01278317
1704701149513729,0.05746084,0.10055647,10.11789608,-0.03195793,0.00532632,-0.00319579
1704701149515664,0.09097967,0.08619126,10.13226128,-0.02982740,0.00319579,-0.01065264
1704701149517633,0.08140286,0.08619126,10.11789608,-0.03515373,0.00213053,-0.01065264
1704701149519577,0.06224924,0.10534488,10.12747288,-0.03621899,0.00745685,-0.01171791
1704701149521770,0.09097967,0.08619126,10.10831928,-0.02237055,-0.00852212,-0.01917476
1704701149523667,0.06224924,0.10534488,10.10831928,-0.02024002,-0.00426106,-0.02024002
1704701149525679,0.10055647,0.11492168,10.12268448,-0.03302320,0.00106526,-0.01384844
1704701149527624,0.09097967,0.08619126,10.10831928,-0.01384844,-0.00958738,-0.01278317
1704701149529668,0.07661445,0.12928689,10.10831928,0.00000000,-0.00745685,-0.00958738
1704701149531678,0.11013328,0.10534488,10.10353088,-0.00213053,0.00532632,-0.01384844
1704701149533662,0.07182605,0.10055647,10.09874249,-0.01278317,-0.00319579,-0.01171791
1704701149535658,0.10055647,0.13407530,10.10353088,-0.01278317,-0.00745685,-0.01384844
1704701149537631,0.08140286,0.09576806,10.09395409,0.00319579,-0.00213053,-0.02024002
1704701149539701,0.08619126,0.12449849,10.08916569,0.01810949,0.00532632,-0.02237055
1704701149541655,0.09576806,0.12928689,10.08437729,0.01065264,-0.00319579,-0.01491370
1704701149543640,0.08140286,0.10055647,10.08916569,0.00532632,-0.00426106,-0.02024002
1704701149545623,0.10055647,0.13407530,10.07958889,0.00532632,-0.00958738,-0.02343582
1704701149547654,0.07182605,0.11013328,10.08437729,0.01065264,-0.00745685,-0.01917476
1704701149549657,0.10055647,0.11971009,10.07958889,0.01171791,-0.01065264,-0.00958738
1704701149551685,0.08140286,0.13407530,10.07001209,0.02343582,-0.00745685,-0.01278317
1704701149553635,0.08140286,0.11013328,10.07958889,0.03621899,-0.01278317,-0.00852212
1704701149555684,0.10055647,0.12928689,10.06522369,0.03941479,-0.01704423,-0.00106526
1704701149557624,0.06224924,0.12928689,10.07001209,0.03621899,-0.02343582,0.00532632
1704701149559653,0.10055647,0.11971009,10.06043530,0.04261058,-0.02982740,-0.00213053
1704701149561627,0.07182605,0.12928689,10.05564690,0.04048005,-0.02556635,0.00000000
1704701149563846,0.08619126,0.12449849,10.07001209,0.03089267,-0.02663161,-0.00106526
1704701149565678,0.07661445,0.11492168,10.04607010,0.04048005,-0.03728426,0.00213053
1704701149567633,0.06703765,0.12449849,10.05564690,0.04367584,-0.04261058,0.00106526
1704701149569658,0.11492168,0.10055647,10.06043530,0.03834952,-0.04367584,0.00852212
1704701149571644,0.07661445,0.10055647,10.04128170,0.04048005,-0.05326322,0.01384844
1704701149573681,0.09097967,0.11971009,10.05085850,0.04261058,-0.04474111,0.01065264
1704701149575664,0.11013328,0.08140286,10.04128170,0.03408846,-0.04474111,0.00745685
1704701149577620,0.07661445,0.11013328,10.03649330,0.03621899,-0.05113269,0.00958738
1704701149579653,0.11492168,0.10534488,10.04128170,0.03941479,-0.04900216,0.00958738
1704701149581702,0.07661445,0.08140286,10.03170490,0.04048005,-0.04793690,0.00213053
1704701149583650,0.10055647,0.12449849,10.02691650,0.04367584,-0.03941479,0.00745685
1704701149585620,0.09576806,0.09097967,10.02212811,0.04687164,-0.05006743,0.00532632
1704701149587632,0.08619126,0.10055647,10.01255131,0.04687164,-0.04261058,0.00213053
1704701149589739,0.10534488,0.11971009,10.01255131,0.04687164,-0.05326322,-0.00213053
1704701149591673,0.08140286,0.08619126,10.01255131,0.04793690,-0.04048005,-0.00319579
1704701149593650,0.11013328,0.11492168,9.99818611,0.04261058,-0.04261058,0.00000000
1704701149595702,0.08619126,0.10055647,9.99818611,0.04793690,-0.04367584,0.00106526
1704701149597682,0.09097967,0.09097967,9.99339771,0.04261058,-0.04687164,0.00106526
1704701149599664,0.09576806,0.11013328,9.98382092,0.03195793,-0.04687164,-0.00213053
1704701149601617,0.07182605,0.09097967,9.98860931,0.03834952,-0.04687164,-0.00745685
1704701149603648,0.09097967,0.10055647,9.95987892,0.04048005,-0.05006743,-0.01917476
1704701149605703,0.06703765,0.09576806,9.95987892,0.03089267,-0.04474111,-0.01917476
1704701149607617,0.08619126,0.08619126,9.96945572,0.02237055,-0.04793690,-0.01917476
1704701149609638,0.08140286,0.08140286,9.94551373,0.02130529,-0.04793690,-0.01171791
1704701149611658,0.05746084,0.08619126,9.95509052,0.02130529,-0.05539375,-0.01278317
1704701149613706,0.09576806,0.07182605,9.94551373,0.01065264,-0.04261058,-0.01704423
1704701149615669,0.05267244,0.07661445,9.92636013,0.00958738,-0.04474111,-0.02343582
1704701149617648,0.08619126,0.07661445,9.94072533,0.00852212,-0.04261058,-0.01810949
1704701149619629,0.07182605,0.05267244,9.92636013,0.00106526,-0.04687164,-0.01704423
1704701149621656,0.05267244,0.07661445,9.92157173,0.00426106,-0.05113269,-0.02343582
1704701149623688,0.09576806,0.06224924,9.92636013,0.00319579,-0.04261058,-0.02343582
1704701149625699,0.04309563,0.04788403,9.91199493,0.00532632,-0.04048005,-0.02024002
1704701149627602,0.09097967,0.07661445,9.92157173,-0.01491370,-0.03515373,-0.02237055
1704701149629648,0.06703765,0.03351882,9.92636013,-0.00958738,-0.05219796,-0.02556635
1704701149631685,0.06224924,0.05267244,9.91678333,0.00106526,-0.03728426,-0.01065264
1704701149633666,0.08619126,0.05267244,9.91678333,0.00852212,-0.03728426,-0.01065264
1704701149635669,0.05267244,0.03351882,9.91678333,-0.00958738,-0.02982740,-0.00852212
1704701149637647,0.08619126,0.06224924,9.91199493,-0.01810949,-0.03941479,-0.00426106
1704701149639668,0.05746084,0.03830723,9.91678333,-0.00426106,-0.03408846,-0.00319579
1704701149641689,0.06224924,0.04788403,9.91199493,0.00213053,-0.03089267,-0.00639159
1704701149643653,0.07182605,0.05746084,9.90241814,0.00213053,-0.04261058,0.00319579
1704701149645620,0.05267244,0.04309563,9.91199493,-0.00745685,-0.03621899,0.00532632
1704701149647669,0.07661445,0.05267244,9.90241814,-0.00745685,-0.02876214,-0.00852212
1704701149649673,0.05267244,0.04788403,9.90241814,-0.00639159,-0.03834952,-0.00213053
1704701149651636,0.06703765,0.04788403,9.90720654,0.00532632,-0.04580637,0.00106526
1704701149653653,0.04309563,0.05267244,9.88805294,0.00532632,-0.03728426,0.00213053
1704701149655723,0.04788403,0.05746084,9.89762974,0.00000000,-0.03515373,-0.00639159
1704701149657705,0.07182605,0.06224924,9.89284134,-0.00426106,-0.02663161,0.00106526
1704701149659660,0.03830723,0.06703765,9.87847614,0.01065264,-0.04048005,0.00213053
1704701149661654,0.06703765,0.07661445,9.89284134,0.01704423,-0.04261058,0.00319579
1704701149663707,0.04309563,0.06703765,9.87847614,0.00319579,-0.03515373,0.00213053
1704701149665690,0.04309563,0.08619126,9.88326454,-0.00213053,-0.02769688,0.00000000
1704701149667619,0.06703765,0.08140286,9.88326454,0.00532632,-0.03728426,0.00213053
1704701149669658,0.02873042,0.08140286,9.87368774,0.01491370,-0.05113269,0.00532632
1704701149671663,0.07182605,0.10534488,9.88805294,0.00000000,-0.04474111,0.00745685
1704701149673715,0.03830723,0.07661445,9.88805294,-0.00852212,-0.04154531,0.00213053
1704701149675687,0.05746084,0.10055647,9.88326454,-0.00213053,-0.03941479,0.00532632
1704701149677629,0.07182605,0.09576806,9.89284134,0.00213053,-0.04580637,-0.00745685
1704701149679658,0.03830723,0.08619126,9.89284134,-0.00532632,-0.03728426,-0.00745685
1704701149681708,0.08619126,0.10534488,9.89762974,-0.00958738,-0.03834952,-0.00426106
1704701149683659,0.04788403,0.08619126,9.91199493,-0.00213053,-0.03728426,0.00000000
1704701149685681,0.06224924,0.09576806,9.91199493,0.00532632,-0.02343582,-0.00319579
1704701149687630,0.07182605,0.09576806,9.90720654,0.00106526,-0.01065264,0.00000000
1704701149689639,0.04788403,0.09097967,9.92157173,-0.00426106,-0.01810949,0.00000000
1704701149691635,0.08140286,0.09576806,9.92157173,-0.00319579,-0.01278317,-0.00958738
1704701149693658,0.05267244,0.08619126,9.93114853,-0.00639159,-0.00639159,-0.00745685
1704701149695622,0.07182605,0.09576806,9.94551373,-0.01597897,-0.00958738,-0.00106526
1704701149697683,0.05267244,0.08140286,9.95030212,-0.01704423,0.01065264,-0.00745685
1704701149699671,0.05746084,0.08619126,9.95987892,-0.01491370,0.01810949,-0.00852212
1704701149701677,0.07182605,0.08140286,9.95509052,-0.01597897,0.00000000,-0.00319579
1704701149703647,0.05267244,0.07182605,9.96466732,-0.01917476,-0.01171791,0.00106526
1704701149705739,0.07182605,0.08140286,9.98860931,-0.01704423,-0.00106526,0.00319579
1704701149707651,0.04788403,0.06703765,9.97903252,0.00213053,0.01065264,-0.00426106
1704701149709712,0.06224924,0.07661445,9.98860931,0.01065264,0.00426106,-0.00958738
1704701149711667,0.06703765,0.07661445,9.99339771,0.00852212,-0.00213053,-0.01171791
1704701149713707,0.04309563,0.07182605,9.99818611,0.02024002,-0.00745685,-0.00639159
1704701149715675,0.07182605,0.08619126,10.01255131,0.02450108,-0.00426106,-0.00426106
1704701149717646,0.03351882,0.07182605,10.00776291,0.02450108,0.00639159,0.00106526
1704701149719672,0.06224924,0.09097967,10.00776291,0.02876214,0.00745685,-0.00106526
1704701149721774,0.05267244,0.08619126,10.01733971,0.03408846,-0.00213053,-0.01597897
1704701149723695,0.03830723,0.08140286,10.02212811,0.01917476,-0.01171791,-0.01491370
1704701149725706,0.07182605,0.09097967,10.02212811,0.02663161,-0.02024002,-0.01384844
1704701149727605,0.02394202,0.08619126,10.02212811,0.02237055,-0.01491370,-0.01704423
1704701149729686,0.06703765,0.09576806,10.02212811,0.03089267,0.00000000,-0.01810949
1704701149731737,0.05746084,0.09097967,10.01733971,0.02876214,-0.00639159,-0.01384844
1704701149733651,0.04309563,0.10055647,10.02212811,0.03089267,-0.02450108,-0.01384844
1704701149735629,0.07661445,0.09576806,10.01733971,0.02556635,-0.02556635,-0.00106526
1704701149737629,0.03830723,0.10055647,10.02212811,0.03089267,-0.02237055,0.00000000
1704701149739687,0.07661445,0.10534488,10.01733971,0.02769688,-0.01597897,-0.00426106
1704701149741686,0.06703765,0.09576806,10.00297451,0.03195793,-0.01065264,-0.00213053
1704701149743683,0.05746084,0.11492168,10.01255131,0.03089267,-0.02556635,0.00213053
1704701149745887,0.08619126,0.10055647,9.99818611,0.03515373,-0.03834952,-0.00745685
1704701149747654,0.06224924,0.11492168,10.00297451,0.03834952,-0.02876214,-0.00958738
1704701149749674,0.08140286,0.11492168,9.99339771,0.03834952,-0.01917476,-0.00426106
1704701149751672,0.06703765,0.09097967,9.97903252,0.02343582,-0.02237055,0.00426106
1704701149753670,0.07661445,0.11013328,9.98382092,0.02556635,-0.02769688,0.00000000
1704701149755697,0.07661445,0.09576806,9.96945572,0.02769688,-0.04048005,0.00426106
1704701149757689,0.07182605,0.08619126,9.96945572,0.02237055,-0.04261058,0.00000000
1704701149759629,0.09097967,0.10534488,9.96945572,0.01278317,-0.04154531,0.00532632
1704701149761782,0.06703765,0.08140286,9.95509052,0.01278317,-0.03302320,0.00000000
1704701149763699,0.10055647,0.10055647,9.95030212,0.03195793,-0.04261058,0.00319579
1704701149765688,0.07661445,0.08619126,9.94551373,0.03195793,-0.04793690,0.00319579
1704701149767619,0.08140286,0.08140286,9.94551373,0.01917476,-0.04580637,0.00852212
1704701149769672,0.10055647,0.09576806,9.94072533,0.00852212,-0.03941479,0.00958738
1704701149771697,0.06224924,0.08140286,9.93593693,0.02130529,-0.03834952,0.01065264
1704701149773683,0.10534488,0.09097967,9.92157173,0.02450108,-0.03515373,0.00639159
1704701149775695,0.07661445,0.09097967,9.91678333,0.01597897,-0.04048005,0.00213053
1704701149777609,0.07182605,0.09097967,9.92157173,0.00639159,-0.05006743,0.00213053
1704701149779706,0.09576806,0.09097967,9.90720654,0.01810949,-0.04900216,0.00426106
1704701149781702,0.05746084,0.09576806,9.90241814,0.01278317,-0.03302320,0.00319579
1704701149783708,0.09576806,0.10055647,9.89284134,-0.00532632,-0.03728426,0.00000000
1704701149785666,0.07661445,0.08619126,9.88326454,-0.01704423,-0.03621899,0.00213053
1704701149787642,0.06703765,0.10534488,9.89284134,-0.01384844,-0.04261058,0.00106526
1704701149789785,0.09097967,0.08619126,9.87847614,-0.00958738,-0.04793690,-0.00745685
1704701149791722,0.05746084,0.09576806,9.87368774,-0.00958738,-0.03408846,-0.01171791
1704701149793665,0.08140286,0.10055647,9.87368774,-0.00639159,-0.02556635,-0.01171791
1704701149795684,0.06703765,0.07182605,9.86411095,-0.00958738,-0.02982740,-0.01597897
1704701149797667,0.06703765,0.10534488,9.86889935,-0.00319579,-0.03089267,-0.01917476
1704701149799668,0.07182605,0.07661445,9.86411095,-0.00426106,-0.02024002,-0.00958738
1704701149801679,0.05746084,0.07661445,9.85932255,-0.00958738,-0.01278317,-0.01704423
1704701149803651,0.07182605,0.09576806,9.85932255,-0.00852212,-0.00958738,-0.02024002
1704701149805720,0.05267244,0.06224924,9.85453415,-0.01278317,-0.01278317,-0.01278317
1704701149807650,0.06703765,0.08619126,9.85453415,-0.00958738,-0.01491370,-0.00532632
1704701149809689,0.05267244,0.07661445,9.85453415,-0.00532632,-0.01278317,-0.00852212
1704701149811650,0.05746084,0.06224924,9.85453415,-0.00745685,0.00106526,-0.00639159
