timestamp,accel_x,accel_y,accel_z,gyro_x,gyro_y,gyro_z
1691758657096254,-0.07661445,-0.07661445,9.88326454,0.00213053,0.00958738,0.01065264
1691758657098284,-0.10055647,-0.00957681,9.90241814,-0.00426106,0.00319579,0.01384844
1691758657100220,-0.10534488,-0.01915361,9.84974575,0.00745685,-0.00213053,0.00639159
1691758657102193,-0.11013328,-0.01436521,9.84016895,0.00958738,0.00000000,-0.00852212
1691758657104243,-0.07661445,-0.08140286,9.85932255,-0.00106526,0.00639159,-0.02024002
1691758657106265,-0.06224924,-0.13886370,9.88805294,0.00852212,0.00852212,-0.02237055
1691758657108256,-0.09097967,-0.01915361,9.85453415,-0.00639159,0.00958738,-0.01171791
1691758657110177,-0.05746084,-0.01915361,9.89762974,-0.01065264,0.00745685,0.00213053
1691758657112250,-0.08140286,-0.03830723,9.90241814,-0.00319579,0.00213053,0.01278317
1691758657114265,-0.05746084,-0.08140286,9.82101536,-0.00213053,0.00000000,0.00852212
1691758657116242,-0.07182605,-0.02394202,9.87368774,-0.00319579,-0.00213053,-0.00213053
1691758657118214,-0.13886370,-0.16280572,9.91199493,0.02343582,0.00639159,-0.01917476
1691758657120199,-0.10534488,-0.12449849,9.86411095,0.02343582,0.00852212,-0.02024002
1691758657122257,-0.04309563,-0.01915361,9.87847614,0.01810949,0.00532632,-0.00958738
1691758657124230,-0.06703765,-0.13886370,9.94551373,-0.00106526,0.01278317,0.00745685
1691758657126224,-0.10055647,-0.14844051,9.90241814,0.00106526,0.00319579,0.01597897
1691758657128203,-0.11492168,-0.00478840,9.86889935,-0.00426106,-0.00213053,0.01491370
1691758657130225,-0.13886370,-0.03830723,9.91678333,0.00106526,-0.00213053,0.00000000
1691758657132253,-0.12449849,-0.08619126,9.87368774,0.00958738,-0.00213053,-0.01704423
1691758657134213,-0.08140286,-0.04309563,9.81143856,0.00532632,-0.00106526,-0.02556635
1691758657136237,-0.08619126,-0.12928689,9.88805294,-0.00532632,0.00532632,-0.02130529
1691758657138344,-0.12449849,-0.08140286,9.92157173,-0.01491370,0.00426106,-0.01065264
1691758657140208,-0.06703765,0.04788403,9.82580376,-0.00213053,0.00532632,0.00532632
1691758657142225,-0.05746084,0.06703765,9.86889935,0.01171791,0.00426106,0.01810949
1691758657144209,-0.09097967,-0.08619126,9.89762974,0.00639159,-0.00106526,0.00958738
1691758657146242,-0.11013328,-0.14844051,9.84495735,0.01597897,-0.00426106,0.00106526
1691758657148234,-0.09576806,-0.06224924,9.82101536,-0.01065264,-0.00639159,-0.01491370
1691758657150206,-0.08140286,-0.08140286,9.88805294,0.00319579,0.00532632,-0.02237055
1691758657152192,-0.05746084,-0.10055647,9.85932255,0.00426106,0.00852212,-0.01704423
1691758657154238,-0.00957681,-0.06703765,9.81622696,0.00000000,0.00426106,-0.00426106
1691758657156394,-0.07661445,-0.06703765,9.91199493,-0.00106526,0.00000000,0.00532632
1691758657158219,-0.09576806,-0.09576806,9.90241814,0.00532632,-0.00319579,0.00852212
1691758657160228,-0.09576806,-0.05267244,9.83538055,0.00745685,-0.01171791,0.00106526
1691758657162200,-0.10055647,0.00000000,9.84495735,0.00958738,-0.00106526,-0.01065264
1691758657164260,-0.05267244,-0.13886370,9.88805294,-0.00639159,0.00213053,-0.01810949
1691758657166233,-0.08619126,-0.09097967,9.84016895,-0.00852212,0.00532632,-0.01917476
1691758657168238,-0.06703765,-0.01915361,9.86411095,-0.01917476,0.00745685,-0.00532632
1691758657170184,-0.04309563,0.00000000,9.92157173,-0.00745685,0.00426106,0.00106526
1691758657172244,-0.09576806,-0.06224924,9.88326454,0.00958738,0.00213053,0.01065264
1691758657174265,-0.04788403,0.04309563,9.82580376,0.00852212,-0.00532632,0.00426106
1691758657176199,-0.10534488,-0.05267244,9.92636013,-0.00745685,-0.00319579,-0.00213053
1691758657178223,-0.11492168,-0.13407530,9.93114853,0.00745685,-0.00213053,-0.01810949
1691758657180219,-0.05267244,-0.08140286,9.85932255,0.02130529,0.00426106,-0.01491370
1691758657182257,-0.07182605,-0.01915361,9.86889935,0.01704423,0.00852212,-0.00958738
1691758657184239,-0.04788403,-0.10534488,9.89762974,0.00532632,0.01384844,0.00426106
1691758657186231,-0.04788403,-0.04788403,9.87847614,-0.00426106,0.00000000,0.01065264
1691758657188322,-0.09576806,-0.01915361,9.89284134,0.00106526,-0.00426106,0.01384844
1691758657190203,-0.08619126,-0.03351882,9.94551373,0.02024002,0.00106526,-0.00106526
1691758657192194,-0.07661445,-0.02873042,9.85453415,0.02450108,-0.00106526,-0.01597897
1691758657194222,-0.07182605,-0.01915361,9.81622696,-0.00958738,0.00213053,-0.02450108
1691758657196270,-0.05746084,-0.10534488,9.88805294,-0.00213053,0.01278317,-0.02343582
1691758657198250,-0.04788403,-0.08140286,9.91678333,-0.01065264,0.00958738,-0.00852212
1691758657200183,-0.04309563,0.00000000,9.85932255,0.00532632,0.00319579,0.00426106
1691758657202203,-0.07182605,-0.01436521,9.88805294,-0.00213053,0.00213053,0.01065264
1691758657204259,-0.09576806,-0.07182605,9.85932255,-0.00106526,-0.00106526,0.00319579
1691758657206250,-0.07661445,-0.09576806,9.84016895,-0.00213053,0.00000000,-0.00639159
1691758657208202,-0.10055647,-0.07661445,9.87368774,0.00745685,-0.00319579,-0.01704423
1691758657210190,-0.07182605,-0.11013328,9.92636013,0.00426106,0.00958738,-0.01384844
1691758657212271,-0.03830723,-0.11971009,9.86889935,0.00426106,0.01278317,-0.00319579
1691758657214262,-0.01915361,-0.10534488,9.82580376,-0.00745685,0.00745685,0.00958738
1691758657216230,-0.07661445,-0.02394202,9.92636013,0.00639159,0.00426106,0.01491370
1691758657218208,-0.06703765,-0.05267244,9.89762974,0.00958738,0.00319579,0.00639159
1691758657220194,-0.08619126,0.02873042,9.87368774,0.00958738,-0.00213053,-0.00852212
1691758657222304,-0.10055647,-0.06703765,9.87847614,0.00639159,0.00213053,-0.01917476
1691758657224254,-0.07661445,-0.14844051,9.87847614,0.00426106,0.01278317,-0.02556635
1691758657226241,-0.09097967,-0.06703765,9.82580376,-0.00213053,0.00745685,-0.01704423
1691758657228214,-0.03830723,0.01915361,9.85453415,-0.01810949,0.01491370,0.00213053
1691758657230249,-0.05746084,-0.01915361,9.92636013,-0.01171791,0.00639159,0.01810949
1691758657232214,-0.06224924,-0.06703765,9.84495735,0.00639159,0.00745685,0.01810949
1691758657234255,-0.03351882,0.04788403,9.84974575,0.00639159,-0.00106526,0.00852212
1691758657236197,-0.12449849,-0.08619126,9.91678333,0.02024002,-0.00639159,-0.00852212
1691758657238241,-0.12928689,-0.06703765,9.86411095,0.01810949,0.00532632,-0.01278317
1691758657240229,0.00000000,0.00957681,9.85453415,0.03941479,0.00213053,0.02876214
1691758657242204,-0.01915361,-0.12928689,10.02212811,-0.00426106,0.00319579,0.08628642
1691758657244339,-0.08619126,-0.14365210,9.98382092,-0.01917476,0.00426106,0.08841695
1691758657246261,-0.05746084,0.08140286,9.95987892,0.01384844,0.00958738,-0.00852212
1691758657248428,-0.07661445,0.01915361,9.99339771,0.02663161,0.00958738,-0.06498113
1691758657250200,-0.04788403,-0.05267244,9.99339771,-0.02237055,0.02556635,-0.03621899
1691758657252301,0.00000000,-0.04309563,9.96466732,-0.04261058,0.01917476,-0.03302320
1691758657254198,-0.03351882,0.06224924,10.02212811,-0.05326322,0.02982740,0.08841695
1691758657256255,-0.06224924,-0.05746084,10.04607010,-0.03728426,0.03089267,0.10120012
1691758657258232,-0.01436521,-0.11013328,10.06522369,0.05432849,0.03408846,0.06604639
1691758657260175,0.03830723,0.14365210,10.03649330,0.03728426,0.05326322,0.06285060
1691758657262407,-0.01915361,0.05746084,9.90720654,0.02982740,0.05645901,0.07776430
1691758657264269,-0.11013328,-0.35434186,9.88805294,0.00000000,0.08096009,0.12250541
1691758657266191,0.03351882,-0.21068975,9.95509052,-0.01384844,0.08628642,0.11291803
1691758657268254,0.10055647,0.02873042,9.89284134,-0.00319579,0.10652644,0.15020229
1691758657270214,-0.02394202,-0.09576806,9.84974575,0.03834952,0.09906960,0.16192019
1691758657272252,-0.05746084,-0.12449849,9.95509052,0.10439591,0.11398330,0.16937704
1691758657274223,0.00957681,0.01436521,9.96945572,0.08522116,0.14381070,0.13315806
1691758657276213,-0.10534488,-0.16280572,10.15620327,0.04793690,0.15020229,0.15020229
1691758657278201,-0.21547815,-0.23942018,10.29027843,0.04580637,0.14594123,0.16085494
1691758657280149,-0.10534488,-0.10534488,10.24718285,0.06178534,0.20133498,0.12357067
1691758657282246,-0.02873042,0.01915361,10.63025570,0.01810949,0.20879182,0.15020229
1691758657284274,-0.00957681,0.01436521,10.86967564,0.03834952,0.17470337,0.17044231
1691758657286195,-0.11492168,-0.28730419,10.94150162,0.04580637,0.20772657,0.13848437
1691758657288290,-0.20590134,-0.14844051,11.20007515,0.02130529,0.24501082,0.12250541
1691758657290234,-0.01436521,-0.10534488,11.32457447,0.00639159,0.19174761,0.16937704
1691758657292159,-0.12449849,-0.24899697,11.66933918,0.01171791,0.17044231,0.18002969
1691758657294208,-0.19632454,-0.04309563,11.79862595,0.01171791,0.21092236,0.14274544
1691758657296212,-0.07182605,-0.21068975,11.90875912,0.01597897,0.19813919,0.15872440
1691758657298286,-0.10534488,-0.13886370,12.11944866,-0.00319579,0.16724652,0.18961707
1691758657300260,-0.12449849,-0.15322891,12.17690945,-0.00319579,0.15765914,0.17683390
1691758657302195,-0.20111294,-0.26336220,12.48336792,0.01171791,0.17896442,0.14594123
1691758657304202,-0.01915361,0.01436521,12.51688671,-0.01384844,0.17896442,0.17789917
1691758657306449,-0.11492168,-0.31124622,12.72278786,-0.01597897,0.13102752,0.19494340
1691758657308249,-0.08619126,-0.09576806,12.82334423,0.02024002,0.14807175,0.17044231
1691758657310172,0.05267244,-0.22984336,12.89995861,0.01597897,0.17470337,0.17257284
1691758657312250,-0.23463176,-0.19153613,13.17768574,-0.04261058,0.13848437,0.16724652
1691758657314262,-0.05746084,0.01915361,12.98614979,-0.04687164,0.13741912,0.15446334
1691758657316299,-0.13886370,-0.33997664,13.15374374,-0.01810949,0.18109496,0.13741912
1691758657318214,-0.04309563,0.04788403,13.09628296,-0.02343582,0.19813919,0.10546118
1691758657320205,-0.02394202,-0.25857377,13.12980175,-0.06711166,0.19600865,0.13315806
1691758657322255,-0.17717093,-0.24420857,13.24951267,-0.05432849,0.18322548,0.15872440
1691758657324260,-0.02394202,-0.10534488,13.12022495,-0.00213053,0.16085494,0.11930962
1691758657326292,-0.13886370,-0.25378537,13.31655025,-0.01597897,0.17789917,0.13315806
1691758657328203,0.08140286,0.17717093,13.17289734,-0.01704423,0.15446334,0.14700650
1691758657330248,-0.01436521,-0.22026655,13.18726254,-0.00213053,0.11078750,0.13848437
1691758657332232,0.07182605,0.04788403,13.12980175,0.02130529,0.11398330,0.14487596
1691758657334221,0.04309563,-0.03351882,13.13459015,0.01810949,0.10120012,0.13848437
1691758657336194,-0.05746084,-0.17717093,13.02924538,0.00745685,0.08415589,0.13315806
1691758657338228,0.07661445,0.07661445,12.85207462,0.02130529,0.08628642,0.11398330
1691758657340233,-0.12449849,-0.25378537,12.89517021,0.04154531,0.07669904,0.10439591
1691758657342272,0.14844051,0.06703765,12.67011547,0.05219796,0.07989483,0.10333065
1691758657344199,-0.05746084,-0.20111294,12.75630665,0.04154531,0.09054748,0.11078750
1691758657346280,-0.01436521,-0.28251579,12.55519390,0.05965481,0.07350325,0.10013486
1691758657348263,0.00000000,0.11492168,12.39238834,0.02876214,0.08309063,0.11078750
1691758657350207,-0.26815060,-0.27772740,12.34929276,0.00000000,0.05858954,0.10333065
1691758657352199,0.00478840,0.00478840,12.11466026,-0.02876214,0.04261058,0.10546118
1691758657354215,-0.21547815,-0.27772740,12.23437023,-0.00745685,0.05752428,0.10865697
1691758657356236,-0.01915361,-0.27293900,11.98537350,0.01597897,0.05326322,0.10013486
1691758657358228,-0.00478840,0.11492168,11.92312431,0.02237055,0.04793690,0.09800433
1691758657360201,-0.19632454,-0.22984336,11.84650993,0.02130529,0.07456851,0.09374327
1691758657362214,0.02394202,0.04788403,11.63103199,0.04367584,0.06498113,0.10439591
1691758657364270,-0.21068975,-0.11492168,11.78904915,0.06604639,0.05326322,0.09161274
1691758657366235,-0.05267244,-0.07661445,11.53047562,0.04687164,0.02556635,0.09161274
1691758657368434,-0.11971009,0.12449849,11.58793640,0.04474111,0.02343582,0.07882957
1691758657370201,-0.18674773,-0.22505496,11.51132202,0.04687164,0.03834952,0.07350325
1691758657372274,0.06224924,0.03830723,11.29105568,0.03728426,0.03621899,0.06498113
1691758657374230,-0.26815060,-0.21068975,11.45864964,0.01491370,0.05539375,0.07563377
1691758657376225,-0.12449849,-0.30166942,11.10909557,0.03621899,0.08628642,0.05965481
1691758657378306,-0.12449849,-0.01915361,11.07557678,0.02343582,0.09374327,0.05219796
1691758657380251,-0.23942018,-0.26336220,11.08994198,0.01810949,0.06285060,0.04580637
1691758657382232,0.00957681,0.03351882,10.80742645,0.01597897,0.04900216,0.04900216
1691758657384331,-0.26336220,-0.06703765,10.99896240,0.00426106,0.04474111,0.03941479
1691758657386288,-0.08619126,-0.13886370,10.75475407,0.01278317,0.04154531,0.04261058
1691758657388266,-0.05746084,0.01436521,10.73081207,0.02556635,0.03195793,0.05006743
1691758657390231,-0.00478840,0.33997664,10.86009884,0.03302320,0.02237055,0.04580637
1691758657392259,0.03830723,0.61770403,10.83136845,0.01917476,-0.00532632,0.05326322
1691758657394336,-0.23942018,0.41659111,10.97502041,0.00958738,-0.02343582,0.05432849
1691758657396393,0.05267244,0.41180268,10.58237171,0.01597897,-0.03408846,0.04580637
1691758657398283,-0.11013328,0.32561144,10.68292809,0.01384844,-0.04474111,0.03941479
1691758657400337,-0.11492168,0.11971009,10.54406452,-0.00213053,-0.04900216,0.04900216
1691758657402203,0.02873042,0.06224924,10.26154804,-0.00532632,-0.05326322,0.04261058
1691758657404249,-0.20111294,-0.00957681,10.47223854,0.00106526,-0.03728426,0.02556635
1691758657406305,0.06703765,0.09097967,10.22324085,-0.01704423,-0.03834952,0.03089267
1691758657408259,-0.13407530,0.09097967,10.30943298,-0.01065264,-0.03408846,0.01810949
1691758657410187,-0.26815060,0.06224924,10.39083576,0.00852212,-0.03302320,-0.00106526
1691758657412254,0.02394202,-0.09576806,10.22324085,0.02237055,-0.03408846,-0.00852212
1691758657414307,-0.06224924,0.02394202,10.25197124,0.03941479,-0.02876214,0.01810949
1691758657416239,-0.06224924,-0.11492168,10.21845245,0.04261058,-0.03515373,0.01810949
1691758657418311,-0.00478840,0.16759412,10.13226128,0.04580637,-0.03089267,0.02130529
1691758657420223,-0.14844051,-0.08140286,10.42914295,0.04687164,-0.04580637,0.02130529
1691758657422268,-0.09576806,0.06703765,10.29506683,0.03408846,-0.05645901,0.02982740
1691758657424235,-0.04309563,-0.10055647,10.21845245,0.01597897,-0.05219796,0.01917476
1691758657426286,-0.20590134,-0.15322891,10.40041256,-0.00106526,-0.06285060,0.00852212
1691758657428203,0.11971009,0.00478840,10.17056847,-0.00852212,-0.05645901,-0.00426106
1691758657430246,-0.03830723,-0.03351882,10.24239445,-0.02663161,-0.06072007,-0.00745685
1691758657432220,-0.05746084,0.04309563,10.17535686,-0.00958738,-0.05432849,0.00958738
1691758657434220,0.02394202,0.12928689,9.95509052,-0.00958738,-0.03302320,0.01384844
1691758657436202,-0.30166942,0.00957681,10.13226128,0.00639159,-0.01491370,0.01491370
1691758657438212,-0.18195933,0.00000000,9.98382092,0.03408846,-0.01171791,0.00213053
1691758657440228,-0.19632454,-0.04309563,9.97424412,0.03834952,-0.02982740,0.00319579
1691758657442247,-0.28251579,0.00000000,10.06043530,0.03408846,-0.03834952,0.00426106
1691758657444206,-0.03830723,0.12449849,9.85453415,0.03089267,-0.05752428,0.00532632
1691758657446254,-0.10534488,0.02394202,9.95509052,0.03089267,-0.08522116,-0.00213053
1691758657448428,0.04788403,0.13407530,9.95030212,0.03941479,-0.09161274,-0.01171791
1691758657450234,-0.12928689,-0.11013328,9.97424412,0.02130529,-0.12250541,-0.01491370
1691758657452241,-0.10534488,-0.00478840,9.93593693,0.00426106,-0.12676647,-0.01597897
1691758657454231,0.02873042,-0.02394202,9.86889935,-0.00639159,-0.11824435,-0.01917476
1691758657456236,-0.09576806,-0.10534488,9.93593693,0.01171791,-0.11291803,-0.01704423
1691758657458273,-0.21068975,-0.06703765,9.97424412,0.02237055,-0.12250541,-0.02343582
1691758657460230,-0.08619126,0.12449849,9.80186176,0.02343582,-0.11504856,-0.01491370
1691758657462213,-0.17238252,-0.08619126,9.91678333,0.01384844,-0.10226539,-0.02130529
1691758657464256,0.02394202,0.01436521,9.84016895,-0.00319579,-0.10439591,-0.01278317
1691758657466439,0.06224924,0.10055647,9.76355457,-0.02024002,-0.10652644,-0.02450108
1691758657468205,-0.21068975,-0.12449849,9.92636013,-0.04687164,-0.11504856,-0.01597897
1691758657470252,0.09097967,-0.02394202,9.88805294,-0.04900216,-0.10759171,-0.01597897
1691758657472291,-0.09576806,-0.08140286,9.90720654,-0.04687164,-0.08841695,-0.01065264
1691758657474308,-0.19632454,-0.13886370,9.83059216,-0.04793690,-0.07776430,-0.01278317
1691758657476273,-0.16280572,0.07182605,9.76355457,-0.03834952,-0.06178534,-0.00426106
1691758657478310,-0.28251579,-0.05746084,9.85932255,-0.01491370,-0.03515373,-0.00319579
1691758657480220,-0.07182605,0.03351882,9.75876617,-0.00958738,-0.00639159,-0.02130529
1691758657482247,-0.10055647,0.24899697,9.69172859,-0.00213053,0.00213053,-0.01810949
1691758657484200,-0.24899697,-0.06224924,9.80186176,0.00639159,0.01171791,-0.01171791
1691758657486199,-0.19153613,0.10055647,9.76355457,0.00852212,0.00639159,-0.01810949
1691758657488238,-0.04788403,0.13407530,9.78270817,0.00639159,-0.01384844,-0.02769688
1691758657490322,-0.09576806,-0.04309563,9.85932255,0.01491370,-0.03941479,-0.00639159
1691758657492210,-0.06703765,0.04788403,9.87368774,0.01171791,-0.06924219,-0.02876214
1691758657494202,-0.12928689,-0.07661445,9.93114853,-0.00958738,-0.10652644,-0.01917476
1691758657496267,-0.11492168,0.04309563,9.92157173,-0.01704423,-0.11611383,-0.03728426
1691758657498288,0.01915361,0.21068975,9.95030212,-0.01278317,-0.15020229,-0.03941479
1691758657500195,0.01915361,-0.03351882,10.06043530,-0.00319579,-0.17789917,-0.03302320
1691758657502201,0.09576806,0.10055647,9.95987892,0.01810949,-0.17363811,-0.02024002
1691758657504260,0.05267244,0.11492168,10.00297451,0.01704423,-0.18429075,-0.02556635
1691758657506259,0.00478840,0.05267244,10.07958889,0.01917476,-0.20026971,-0.03728426
1691758657508218,-0.11971009,0.10534488,10.09395409,0.03621899,-0.20133498,-0.03408846
1691758657510183,-0.03351882,0.07661445,10.16099167,0.04367584,-0.18961707,-0.04580637
1691758657512215,-0.00478840,0.19632454,10.02212811,0.03941479,-0.18002969,-0.03834952
1691758657514301,-0.02394202,0.25378537,9.99339771,0.01491370,-0.15233281,-0.02769688
1691758657516235,-0.26815060,-0.06224924,10.11789608,0.01810949,-0.13954964,-0.04261058
1691758657518207,-0.11492168,0.05267244,9.94551373,0.04687164,-0.12570120,-0.03195793
1691758657520182,-0.22505496,0.05746084,10.06043530,0.03834952,-0.08415589,-0.04580637
1691758657522275,-0.22505496,-0.11013328,10.04607010,0.04367584,-0.08735169,-0.01597897
1691758657524243,-0.07661445,0.02394202,9.91199493,0.01384844,-0.07669904,-0.02663161
1691758657526252,-0.24420857,-0.20111294,10.08437729,0.00745685,-0.05965481,-0.02130529
1691758657528234,-0.19153613,0.00000000,9.98860931,-0.01597897,-0.05858954,-0.01597897
1691758657530222,-0.13886370,0.11971009,9.93593693,-0.00532632,-0.04367584,-0.01384844
1691758657532233,-0.22505496,-0.09576806,9.95987892,-0.01384844,-0.00958738,-0.00213053
1691758657534204,-0.09576806,0.10055647,9.70609379,-0.00106526,0.03408846,-0.00106526
1691758657536202,-0.14844051,0.12449849,9.73482418,0.02450108,0.07243798,0.00319579
1691758657538290,-0.19153613,-0.09576806,9.74440098,0.03728426,0.10013486,-0.00852212
1691758657540188,-0.29209262,0.25378537,9.67257500,0.04154531,0.13528858,-0.03621899
1691758657542278,-0.31124622,-0.14365210,9.74440098,0.04580637,0.14913702,-0.03834952
1691758657544201,-0.09097967,0.05746084,9.66778660,0.04367584,0.16937704,-0.02876214
1691758657546246,-0.35913026,0.04788403,9.64384460,0.03195793,0.15446334,-0.02769688
1691758657548270,-0.27293900,-0.02394202,9.63426781,0.03408846,0.14487596,-0.04261058
1691758657550197,-0.18674773,0.04309563,9.67257500,0.04154531,0.15872440,-0.04048005
1691758657552207,-0.02873042,0.17238252,9.59596062,0.03728426,0.13422331,-0.06178534
1691758657554221,0.08140286,-0.00957681,9.60553741,0.02982740,0.11078750,-0.06285060
1691758657556367,0.09576806,0.06224924,9.64863300,0.04261058,0.08735169,-0.06391586
1691758657558227,0.05267244,0.02873042,9.66778660,0.06178534,0.05965481,-0.05539375
1691758657560190,-0.00478840,-0.11013328,9.73003578,0.07243798,0.03728426,-0.05645901
1691758657562211,0.06224924,0.07661445,9.71088219,0.08202536,-0.01491370,-0.05539375
1691758657564297,-0.00478840,-0.06703765,9.83059216,0.08415589,-0.04154531,-0.05432849
1691758657566228,0.03830723,-0.01915361,9.84495735,0.06498113,-0.05113269,-0.05432849
1691758657568205,0.09576806,0.05746084,9.85453415,0.05326322,-0.07137272,-0.05752428
1691758657570270,-0.02873042,-0.22505496,9.95030212,0.05326322,-0.10013486,-0.06711166
1691758657572343,0.03830723,-0.08140286,9.82580376,0.04367584,-0.10120012,-0.06285060
1691758657574262,0.06703765,-0.26815060,9.96466732,0.02663161,-0.09587380,-0.07137272
1691758657576207,0.00000000,-0.13407530,9.84495735,0.02024002,-0.11078750,-0.05432849
1691758657578229,0.11013328,-0.04309563,9.75397778,0.02556635,-0.10120012,-0.04474111
1691758657580223,-0.04309563,-0.20111294,9.93114853,0.01917476,-0.07776430,-0.04367584
1691758657582218,0.07182605,-0.12449849,9.75397778,0.01384844,-0.08415589,-0.03834952
1691758657584211,0.00000000,-0.11013328,9.82101536,-0.02237055,-0.06711166,-0.03302320
1691758657586197,-0.09097967,-0.25857377,9.87847614,-0.01065264,-0.06817693,-0.04793690
1691758657588248,0.00957681,-0.10055647,9.66299820,0.00000000,-0.07350325,-0.06178534
1691758657590218,-0.13886370,-0.04788403,9.84016895,0.01065264,-0.08948221,-0.06072007
1691758657592242,-0.03830723,-0.02394202,9.81622696,0.02982740,-0.10226539,-0.06498113
1691758657594203,0.04788403,0.04788403,9.76355457,0.04261058,-0.11185277,-0.08202536
1691758657596243,0.00000000,-0.04788403,9.94072533,0.03728426,-0.13528858,-0.05965481
1691758657598240,0.10534488,0.01436521,9.79228497,0.00426106,-0.15339808,-0.05645901
1691758657600242,-0.01915361,-0.05267244,9.89762974,0.03302320,-0.16724652,-0.06391586
1691758657602206,0.00957681,-0.16759412,9.94551373,0.02343582,-0.17150757,-0.06604639
1691758657604246,0.05267244,-0.12928689,9.81143856,0.01065264,-0.17363811,-0.03941479
1691758657606267,-0.04309563,-0.21068975,9.96945572,-0.01065264,-0.17789917,-0.06391586
1691758657608262,0.03830723,-0.10055647,9.90720654,-0.00532632,-0.17150757,-0.05006743
1691758657610192,-0.08140286,-0.05746084,9.92636013,-0.00852212,-0.16192019,-0.05006743
1691758657612406,-0.11492168,-0.06224924,10.00776291,-0.01597897,-0.16618125,-0.04793690
1691758657614295,-0.09097967,-0.20111294,9.93593693,-0.01810949,-0.14381070,-0.03941479
1691758657616212,-0.22505496,-0.10055647,9.95030212,-0.01597897,-0.13741912,-0.03515373
1691758657618260,-0.15322891,-0.09576806,9.91678333,-0.02450108,-0.12570120,-0.02237055
1691758657620186,-0.14365210,-0.07661445,9.93114853,-0.03621899,-0.09693906,-0.01384844
1691758657622371,-0.12449849,-0.10534488,10.00776291,-0.02024002,-0.06285060,-0.02450108
1691758657624227,-0.16759412,-0.02873042,9.97903252,0.00319579,-0.04474111,-0.03195793
1691758657626264,-0.26336220,0.01915361,10.05564690,0.02130529,-0.04261058,-0.04474111
1691758657628207,-0.27293900,-0.05746084,10.10831928,0.01491370,-0.03621899,-0.03302320
1691758657630261,-0.26336220,-0.07661445,10.05564690,0.00852212,-0.03515373,-0.05006743
1691758657632269,-0.17238252,0.00000000,10.07958889,-0.01384844,-0.05219796,-0.04261058
1691758657634220,-0.11013328,-0.01436521,10.13226128,-0.02130529,-0.04687164,-0.04580637
1691758657636217,-0.13407530,-0.09576806,10.15141487,-0.01278317,-0.05219796,-0.03834952
1691758657638248,-0.11013328,-0.11492168,10.18014526,0.00000000,-0.05432849,-0.01704423
1691758657640241,-0.11492168,-0.00478840,10.17056847,0.00958738,-0.04261058,-0.01491370
1691758657642225,-0.13886370,-0.00957681,10.19929886,0.02556635,-0.03621899,-0.01597897
1691758657644213,-0.12449849,0.00000000,10.21845245,0.02343582,-0.02556635,-0.01810949
1691758657646228,-0.06224924,0.02394202,10.18493366,0.01597897,-0.03621899,-0.01065264
1691758657648264,-0.07661445,-0.02394202,10.28549004,0.02237055,-0.06391586,0.00426106
1691758657650184,-0.03351882,-0.02394202,10.30464458,0.02450108,-0.07350325,-0.00319579
1691758657652204,0.01915361,-0.08619126,10.30464458,0.02024002,-0.08628642,-0.01171791
1691758657654222,-0.02394202,-0.10534488,10.40998936,0.01704423,-0.10972223,-0.01065264
1691758657656306,0.02394202,-0.00478840,10.33816338,-0.00106526,-0.13209279,-0.01917476
1691758657658363,-0.05746084,-0.09576806,10.37168217,-0.00958738,-0.14168017,-0.03728426
1691758657660188,-0.04309563,-0.00957681,10.40041256,-0.04261058,-0.14594123,-0.05113269
1691758657662294,0.05267244,-0.09576806,10.30464458,-0.05645901,-0.13741912,-0.04261058
1691758657664251,-0.03830723,-0.18674773,10.32858658,-0.08202536,-0.11717909,-0.04793690
1691758657666227,-0.01436521,-0.01436521,10.15141487,-0.07243798,-0.09267800,-0.02237055
1691758657668222,-0.11492168,-0.15801731,10.07001209,-0.05432849,-0.04900216,-0.00532632
1691758657670214,-0.18195933,-0.02394202,10.09395409,-0.04580637,-0.02130529,-0.01278317
1691758657672323,-0.19153613,-0.02873042,9.99818611,-0.03728426,-0.01384844,-0.00426106
1691758657674261,-0.32561144,-0.04788403,10.05564690,-0.03302320,0.00532632,0.00000000
1691758657676378,-0.23463176,0.07661445,10.08916569,-0.01597897,-0.00213053,0.01384844
1691758657678212,-0.09576806,-0.04788403,10.00297451,-0.00745685,-0.01065264,-0.01278317
1691758657680335,-0.05267244,-0.02873042,10.04607010,0.00213053,-0.02343582,0.01917476
1691758657682244,0.00957681,0.05267244,10.05564690,0.01917476,-0.02663161,0.00639159
1691758657684272,0.00000000,-0.04309563,10.06043530,0.01491370,-0.05006743,0.01171791
1691758657686226,-0.04309563,0.04309563,10.10353088,0.00319579,-0.06178534,-0.01171791
1691758657688295,-0.00478840,0.03830723,10.04128170,-0.01278317,-0.05858954,-0.00958738
1691758657690197,-0.10534488,-0.02873042,10.08916569,-0.00852212,-0.06711166,-0.02237055
1691758657692257,-0.08619126,0.08140286,10.07958889,-0.02663161,-0.05539375,-0.01384844
1691758657694226,-0.03830723,0.00957681,9.99818611,-0.02876214,-0.05219796,0.00106526
1691758657696242,-0.06703765,0.02394202,10.05085850,-0.03515373,-0.03621899,0.00852212
1691758657698250,-0.01915361,0.05746084,9.99339771,-0.03408846,-0.01917476,0.00532632
1691758657700234,-0.12928689,-0.09097967,9.99339771,-0.03728426,0.00745685,-0.00852212
1691758657702219,-0.15322891,0.03830723,10.02212811,-0.03515373,0.01171791,-0.00213053
1691758657704235,-0.09097967,0.00478840,9.95030212,-0.03728426,0.00000000,-0.00532632
1691758657706302,-0.22984336,-0.06224924,9.98382092,-0.03515373,0.00213053,-0.00106526
1691758657708212,-0.07661445,0.08140286,9.88805294,-0.02769688,-0.00213053,-0.00426106
1691758657710222,0.01436521,0.00000000,9.78749657,-0.02343582,0.00745685,0.01065264
1691758657712210,-0.07661445,0.04788403,9.80665016,-0.00532632,0.03621899,0.02130529
1691758657714273,-0.05746084,0.03351882,9.66299820,0.02130529,0.07243798,0.02663161
1691758657716269,-0.20590134,-0.05267244,9.61990261,0.04261058,0.11824435,0.02450108
1691758657718211,-0.27293900,0.05746084,9.64384460,0.05539375,0.14700650,0.02130529
1691758657720222,-0.24899697,0.04309563,9.50976944,0.07243798,0.18429075,0.02663161
1691758657722282,-0.33518824,0.21547815,9.51455784,0.08096009,0.21092236,0.02343582
1691758657724235,-0.30645782,0.22984336,9.52892303,0.06924219,0.20026971,0.02343582
1691758657726214,-0.19153613,0.13407530,9.40442467,0.06285060,0.17576863,0.00745685
1691758657728320,-0.13407530,0.08140286,9.56244183,0.03728426,0.13954964,0.00745685
1691758657730227,0.00000000,-0.04309563,9.59596062,0.02130529,0.09480853,-0.01384844
1691758657732240,-0.06224924,-0.16280572,9.48103905,0.00319579,0.02982740,0.00106526
1691758657734274,-0.11013328,-0.22505496,9.65820980,-0.00213053,0.00319579,0.00106526
1691758657736205,0.13407530,-0.02394202,9.66778660,-0.01917476,-0.02769688,0.01065264
1691758657738272,0.11013328,-0.09097967,9.67736340,-0.04474111,-0.05326322,0.02769688
1691758657740205,0.14365210,-0.01436521,9.63905621,-0.04474111,-0.05432849,0.02663161
1691758657742224,0.10534488,0.01436521,9.56723022,-0.00639159,-0.04474111,0.03621899
1691758657744213,-0.10055647,0.02873042,9.71088219,-0.00532632,-0.02663161,0.01491370
1691758657746216,-0.10534488,0.15322891,9.65342140,0.01384844,-0.01171791,0.03089267
1691758657748276,-0.28251579,-0.06224924,9.64863300,0.02663161,0.02876214,0.00000000
1691758657750235,-0.23942018,0.12449849,9.65820980,0.02876214,0.04687164,0.01384844
1691758657752217,-0.11971009,0.17717093,9.63905621,0.00639159,0.05006743,0.00319579
1691758657754207,-0.24420857,-0.05746084,9.75397778,0.01065264,0.05219796,0.02982740
1691758657756314,-0.07182605,0.11013328,9.75876617,0.03621899,0.05539375,0.02237055
1691758657758233,-0.11492168,0.05746084,9.79228497,0.01917476,0.05326322,0.01597897
1691758657760216,-0.22505496,0.00478840,9.83538055,0.01704423,0.02556635,0.01491370
1691758657762308,-0.17238252,0.03351882,9.77791977,0.02769688,0.02982740,0.01704423
1691758657764335,-0.13407530,-0.00957681,9.95030212,0.01065264,0.02556635,0.01384844
1691758657766224,-0.03830723,0.08619126,9.91199493,0.00745685,0.01491370,0.01384844
1691758657768205,-0.00957681,0.07182605,9.88805294,0.01171791,0.00532632,0.01171791
1691758657770209,-0.11492168,-0.04309563,9.99818611,0.02663161,0.00213053,0.00852212
1691758657772252,0.03351882,0.19153613,9.95987892,0.01704423,0.00106526,0.00532632
1691758657774278,-0.16280572,0.04309563,10.08437729,0.02663161,-0.00852212,0.01171791
1691758657776209,-0.28251579,0.09576806,10.07001209,0.03515373,-0.00213053,0.00532632
1691758657778209,-0.06703765,0.19153613,9.99339771,0.05006743,0.00213053,0.00213053
1691758657780233,-0.15801731,0.04788403,10.11789608,0.05432849,0.02130529,0.02024002
1691758657782354,-0.02873042,0.23463176,9.99339771,0.05326322,0.04580637,0.02450108
1691758657784222,-0.31124622,-0.00478840,10.08916569,0.02450108,0.09054748,0.00213053
1691758657786202,-0.25857377,0.02873042,10.12268448,0.03302320,0.10972223,-0.00106526
1691758657788292,-0.15322891,0.13407530,9.95987892,0.03941479,0.13635385,0.01384844
1691758657790215,-0.41659111,-0.02873042,10.03170490,0.04474111,0.15659387,-0.00639159
1691758657792224,-0.29688102,0.16280572,10.00297451,0.03089267,0.16405073,-0.00639159
1691758657794216,-0.17717093,0.17238252,9.95030212,0.03408846,0.15978967,0.01278317
1691758657796299,-0.25857377,-0.05267244,10.05564690,0.02769688,0.15872440,0.02450108
1691758657798285,-0.05267244,0.07182605,9.98382092,0.04687164,0.13528858,0.01065264
1691758657800230,-0.17238252,-0.02873042,10.03649330,0.04367584,0.13315806,0.03195793
1691758657802218,-0.23942018,-0.12449849,10.01733971,0.04687164,0.12996227,0.03515373
1691758657804234,-0.05746084,0.01915361,9.97424412,0.05113269,0.10652644,0.02982740
1691758657806242,-0.12449849,0.00000000,10.04607010,0.04367584,0.08202536,0.01704423
1691758657808240,0.00957681,0.11971009,9.96945572,0.03621899,0.07989483,0.02876214
1691758657810184,-0.00957681,-0.02394202,10.01255131,0.02450108,0.06072007,0.00958738
1691758657812204,-0.07661445,-0.16280572,10.04607010,0.02130529,0.05006743,0.00213053
1691758657814269,0.00478840,0.03830723,9.94551373,0.02982740,0.04048005,0.01597897
1691758657816243,-0.20111294,-0.12449849,10.10353088,0.03621899,0.03089267,0.02556635
1691758657818271,-0.09576806,0.02394202,10.01733971,0.01917476,0.03195793,0.02237055
1691758657820222,-0.01436521,0.12928689,9.97424412,0.00958738,0.03408846,0.02343582
1691758657822389,-0.12928689,0.02394202,10.02212811,0.01704423,0.02130529,0.01278317
1691758657824251,-0.01436521,0.26336220,9.92636013,0.03302320,0.02769688,0.02663161
1691758657826236,-0.22026655,0.03351882,10.11310768,0.02663161,0.03195793,0.02024002
1691758657828221,-0.17717093,-0.01915361,10.07001209,0.02769688,0.01704423,0.03834952
1691758657830216,-0.00478840,0.04309563,10.06043530,0.03515373,0.02130529,0.02982740
1691758657832247,-0.22505496,-0.04788403,10.21366405,0.02343582,0.04048005,0.02450108
1691758657834210,-0.12449849,0.26336220,10.06043530,0.00532632,0.04687164,0.02663161
1691758657836212,-0.23942018,0.07661445,10.19929886,0.01065264,0.06178534,0.03728426
1691758657838238,-0.27293900,0.03830723,10.21366405,0.01278317,0.06391586,0.03515373
1691758657840270,-0.05746084,0.16280572,10.16099167,0.02024002,0.07350325,0.03302320
1691758657842217,-0.23942018,-0.10534488,10.29027843,0.03621899,0.08735169,0.02982740
1691758657844186,-0.16280572,0.13886370,10.11789608,0.05965481,0.10120012,0.03089267
1691758657846231,-0.20590134,0.22984336,10.19451046,0.05326322,0.11717909,0.02343582
1691758657848248,-0.32561144,0.20111294,10.22324085,0.06178534,0.14274544,0.03195793
1691758657850196,-0.20111294,0.33518824,10.07958889,0.07137272,0.14913702,0.03089267
1691758657852231,-0.38307226,0.04788403,10.17535686,0.07243798,0.14700650,0.02663161
1691758657854226,-0.23463176,0.09576806,10.06043530,0.06498113,0.14168017,0.02343582
1691758657856283,-0.19153613,0.08140286,10.13226128,0.06924219,0.12357067,0.01597897
1691758657858332,-0.27772740,0.10534488,10.12747288,0.03302320,0.10120012,0.02237055
1691758657860194,-0.04788403,0.30166942,10.00297451,0.01597897,0.07350325,0.01171791
1691758657862324,-0.18195933,-0.02394202,10.17535686,0.02982740,0.05432849,0.02130529
1691758657864285,-0.01915361,-0.01915361,10.01255131,0.04687164,0.04367584,0.02237055
1691758657866238,0.02394202,0.04309563,10.07480049,0.03941479,0.02343582,0.02237055
1691758657868397,-0.12928689,-0.08619126,10.16578007,0.04154531,0.01171791,0.02769688
1691758657870194,-0.02873042,0.01436521,10.07480049,0.04154531,0.04048005,0.02876214
1691758657872282,-0.03351882,0.02873042,10.17056847,0.04048005,0.05006743,0.02343582
1691758657874233,0.04788403,0.11013328,9.98860931,0.05113269,0.05326322,0.01491370
1691758657876233,-0.04788403,0.09097967,10.01255131,0.03195793,0.07882957,0.02982740
1691758657878211,-0.27772740,-0.11492168,10.07480049,0.03728426,0.09587380,0.00532632
1691758657880300,-0.12449849,0.02394202,9.89762974,0.04474111,0.09374327,0.02450108
1691758657882345,-0.23942018,-0.01436521,10.09874249,0.04367584,0.10226539,0.00426106
1691758657884357,-0.13407530,0.03830723,9.93114853,0.04048005,0.09587380,0.00958738
1691758657886215,-0.09097967,0.18195933,9.92157173,0.04900216,0.08628642,0.00213053
1691758657888290,-0.20111294,0.06224924,10.07480049,0.07137272,0.08096009,0.00532632
1691758657890242,-0.05746084,0.07661445,9.86889935,0.07563377,0.09480853,-0.00106526
1691758657892252,-0.18674773,0.01436521,10.03170490,0.08628642,0.10013486,0.00958738
1691758657894216,-0.11971009,0.00957681,9.83538055,0.09587380,0.10439591,0.00319579
1691758657896213,-0.14365210,0.17238252,9.75397778,0.09800433,0.12676647,0.01597897
1691758657898307,-0.27293900,0.04309563,9.94072533,0.09587380,0.15020229,0.00852212
1691758657900225,-0.07182605,0.10534488,9.65342140,0.09374327,0.18109496,0.01278317
1691758657902213,-0.22984336,0.12928689,9.80186176,0.10546118,0.20133498,0.01384844
1691758657904259,-0.26336220,0.01915361,9.77313137,0.11291803,0.19600865,0.00532632
1691758657906331,-0.18195933,0.16280572,9.69172859,0.10120012,0.18961707,0.00213053
1691758657908247,-0.37828386,0.03351882,9.92636013,0.09054748,0.17683390,0.01384844
1691758657910217,-0.09576806,0.01915361,9.64863300,0.08309063,0.15978967,0.02982740
1691758657912275,-0.10534488,0.12449849,9.76355457,0.07456851,0.12250541,0.02343582
1691758657914230,-0.15801731,0.01915361,9.83538055,0.07456851,0.09693906,0.01065264
1691758657916243,0.10534488,0.16759412,9.66778660,0.08309063,0.07563377,0.01065264
1691758657918247,-0.11492168,0.07661445,9.92636013,0.07882957,0.05219796,0.00532632
1691758657920224,0.05267244,0.01436521,9.79707336,0.06604639,0.03728426,0.00532632
1691758657922270,-0.08619126,0.07661445,9.86889935,0.05752428,0.02450108,-0.00532632
1691758657924190,-0.20111294,-0.00957681,9.99339771,0.04048005,0.02769688,-0.00852212
1691758657926212,0.05746084,0.16280572,9.73003578,0.04474111,0.03834952,0.00745685
1691758657928263,-0.18674773,0.11492168,9.88326454,0.05113269,0.04261058,0.01597897
1691758657930238,0.00957681,0.07661445,9.73003578,0.05752428,0.03515373,0.00532632
1691758657932266,-0.03351882,0.01436521,9.80186176,0.05858954,0.03089267,0.00426106
1691758657934235,-0.24899697,0.00000000,9.96466732,0.05645901,0.02663161,0.01810949
1691758657936249,-0.00478840,0.09097967,9.72524738,0.05539375,0.00426106,0.01597897
1691758657938280,-0.29209262,0.05267244,9.95509052,0.06391586,-0.00852212,0.01810949
1691758657940213,-0.05746084,0.10055647,9.90241814,0.06498113,-0.01491370,0.01171791
1691758657942215,0.05267244,0.02394202,9.91678333,0.05539375,-0.01278317,-0.00319579
1691758657944214,-0.17238252,-0.01436521,10.07958889,0.05539375,-0.01278317,-0.01065264
1691758657946235,0.05746084,0.06224924,9.80665016,0.06498113,0.00106526,-0.01278317
1691758657948249,-0.26815060,-0.02394202,10.04607010,0.05752428,0.01278317,-0.01171791
1691758657950191,-0.18674773,0.00478840,10.03649330,0.05113269,0.01065264,-0.01065264
1691758657952235,-0.09576806,-0.09576806,9.98860931,0.04793690,0.01171791,-0.01491370
1691758657954214,-0.29688102,-0.03351882,10.17535686,0.04154531,0.00426106,-0.01384844
1691758657956301,0.06703765,0.10055647,9.96466732,0.04793690,-0.00319579,-0.02130529
1691758657958322,-0.17717093,-0.03830723,10.15141487,0.03834952,-0.00745685,-0.01917476
1691758657960202,-0.14844051,0.05746084,10.17535686,0.03728426,-0.00532632,-0.02130529
1691758657962246,-0.08140286,-0.11013328,10.06043530,0.04154531,-0.00532632,-0.02130529
1691758657964362,-0.34955344,-0.13407530,10.21366405,0.04580637,0.00000000,-0.02663161
1691758657966239,-0.03830723,0.00478840,9.99818611,0.03941479,0.00852212,-0.01491370
1691758657968209,-0.12449849,-0.13886370,10.11310768,0.04474111,0.01278317,-0.01171791
1691758657970188,-0.11492168,0.11013328,10.14662647,0.04154531,0.01810949,-0.00319579
1691758657972281,-0.05746084,0.00478840,10.00297451,0.03834952,0.01810949,0.00213053
1691758657974311,-0.33997664,-0.08140286,10.20408726,0.03728426,0.02343582,0.00745685
1691758657976229,0.11971009,0.37828386,10.25197124,0.02237055,0.01917476,0.00639159
1691758657978248,-0.02394202,0.57460839,10.42435455,0.01597897,0.00319579,0.00745685
1691758657980232,0.11013328,0.67037648,10.35252857,0.02556635,-0.01384844,0.00426106
1691758657982252,-0.01436521,0.29688102,10.33337498,0.05113269,-0.03408846,-0.00213053
1691758657984231,0.04788403,0.43095630,10.28549004,0.03195793,-0.04687164,-0.01491370
1691758657986324,0.21068975,0.20590134,10.16099167,0.03089267,-0.05113269,-0.02556635
1691758657988257,-0.03351882,0.15322891,10.18014526,0.02024002,-0.06711166,-0.02024002
1691758657990225,0.06224924,0.45010993,10.00776291,0.01704423,-0.05858954,-0.02343582
1691758657992261,-0.05746084,0.07182605,9.97903252,0.01065264,-0.03515373,-0.00745685
1691758657994204,-0.11013328,0.19632454,9.94072533,0.02663161,-0.01810949,-0.00319579
1691758657996257,-0.08140286,0.01436521,9.91678333,0.05219796,-0.01704423,-0.00106526
1691758657998238,-0.34476504,-0.18195933,9.96945572,0.03834952,0.00745685,-0.01491370
1691758658000252,-0.22505496,0.17238252,9.86889935,0.03941479,0.00639159,-0.01704423
1691758658002223,-0.30645782,-0.09576806,9.93593693,0.03941479,0.01491370,-0.01384844
1691758658004234,-0.21547815,0.15801731,9.85453415,0.05113269,0.04474111,-0.02024002
1691758658006343,-0.09576806,0.21068975,9.83059216,0.05858954,0.06178534,-0.01917476
1691758658008437,-0.32082301,-0.15801731,9.89284134,0.05219796,0.09587380,-0.00106526
1691758658010201,-0.24899697,0.15801731,9.76834297,0.04580637,0.10759171,-0.00319579
1691758658012300,-0.25378537,0.18195933,9.82101536,0.04154531,0.10546118,0.00000000
1691758658014342,-0.40701428,-0.00957681,9.86411095,0.01171791,0.07456851,-0.00745685
1691758658016241,-0.20590134,0.11971009,9.86889935,-0.02130529,0.06285060,-0.01278317
1691758658018359,-0.30166942,-0.21068975,9.94551373,-0.00639159,0.02450108,-0.03089267
1691758658020222,0.02394202,0.23463176,9.83059216,-0.00745685,-0.00213053,-0.00852212
1691758658022263,-0.10534488,0.11492168,9.97424412,-0.00745685,-0.01917476,-0.02343582
1691758658024231,-0.04788403,-0.12928689,10.00297451,-0.02450108,-0.05432849,-0.03089267
1691758658026187,0.01436521,0.23942018,9.91199493,-0.02343582,-0.06924219,-0.03089267
1691758658028226,-0.30166942,-0.13407530,10.09395409,-0.02343582,-0.08309063,-0.02343582
1691758658030221,-0.02873042,0.02394202,9.96466732,-0.01171791,-0.07776430,-0.02237055
1691758658032233,-0.25378537,0.24899697,9.97424412,0.02130529,-0.04048005,-0.00426106
1691758658034284,-0.32082301,-0.05267244,9.96466732,0.03621899,-0.00745685,0.00319579
1691758658036248,0.00000000,0.34476504,9.75397778,0.05645901,0.01704423,-0.03089267
1691758658038296,-0.36870706,-0.07661445,9.96466732,0.03621899,0.04580637,-0.00532632
1691758658040190,-0.20590134,0.14844051,9.69651699,0.01384844,0.04367584,-0.01917476
1691758658042265,-0.40222588,0.12928689,9.85453415,0.01704423,0.04580637,-0.02982740
1691758658044284,-0.25378537,-0.08619126,9.78749657,0.00426106,0.02024002,-0.04900216
1691758658046249,0.08140286,0.17238252,9.72524738,-0.00106526,-0.00106526,-0.03089267
1691758658048281,-0.26336220,0.20590134,9.89762974,0.00319579,-0.01704423,-0.03834952
1691758658050238,0.08619126,0.11013328,9.65820980,0.00106526,-0.02343582,-0.04793690
1691758658052218,-0.09576806,0.21068975,9.90720654,0.00106526,-0.06711166,-0.03089267
1691758658054263,-0.20590134,-0.02873042,10.00776291,-0.00106526,-0.07989483,-0.03195793
1691758658056328,0.12928689,0.16759412,9.79707336,-0.00532632,-0.07456851,-0.03302320
1691758658058271,-0.21068975,-0.03351882,10.02691650,-0.00745685,-0.07882957,-0.03834952
1691758658060206,0.06224924,0.04309563,9.82101536,0.01065264,-0.10013486,-0.01810949
1691758658062245,0.09576806,0.18195933,9.85453415,0.01384844,-0.09161274,-0.01810949
1691758658064293,-0.13886370,0.06703765,10.04607010,-0.01278317,-0.06391586,-0.02663161
1691758658066210,0.10534488,0.10534488,9.86889935,-0.00319579,-0.06178534,-0.02982740
1691758658068220,-0.32082301,-0.09576806,10.18493366,-0.01278317,-0.05645901,-0.02343582
1691758658070176,-0.17717093,0.00478840,10.15141487,-0.00745685,-0.05432849,-0.02130529
1691758658072309,0.06224924,0.11013328,9.99339771,-0.01491370,-0.02876214,-0.03728426
1691758658074255,-0.18674773,-0.03830723,10.22802925,0.00106526,-0.01917476,-0.01065264
1691758658076235,-0.12928689,-0.10534488,10.05085850,0.00426106,-0.02237055,-0.01278317
1691758658078212,-0.14365210,-0.07661445,10.18972206,-0.01278317,-0.02024002,-0.00958738
1691758658080245,-0.11013328,-0.11492168,10.09395409,-0.02343582,-0.02237055,-0.01065264
1691758658082239,0.08140286,0.07661445,10.06043530,-0.03408846,-0.03515373,-0.00958738
1691758658084314,-0.22026655,0.06224924,10.25197124,-0.03728426,-0.05113269,-0.01810949
1691758658086217,-0.09097967,0.00478840,10.06043530,-0.03834952,-0.04261058,-0.02663161
1691758658088324,-0.10055647,-0.10534488,10.12747288,-0.01810949,-0.04687164,-0.01810949
1691758658090227,-0.05746084,0.12928689,9.97424412,-0.01597897,0.00106526,-0.01491370
1691758658092214,-0.08619126,0.01436521,9.91199493,-0.00745685,0.02130529,-0.01810949
1691758658094223,-0.38786069,0.03830723,10.02691650,-0.00532632,0.10652644,-0.03728426
1691758658096213,-0.25378537,0.06703765,9.89762974,-0.00745685,0.13635385,-0.04048005
1691758658098316,-0.48841715,-0.09097967,9.94072533,-0.01597897,0.17150757,-0.04687164
1691758658100198,-0.38307226,0.11971009,9.95987892,0.00639159,0.15659387,-0.05006743
1691758658102403,-0.18195933,0.19632454,9.81143856,0.02237055,0.14700650,-0.05006743
1691758658104236,-0.32082301,0.01436521,9.89762974,0.02343582,0.10226539,-0.02982740
1691758658106256,-0.19632454,-0.12449849,9.76834297,0.00958738,0.08948221,-0.02130529
1691758658108236,-0.18674773,0.05746084,9.93114853,0.00106526,0.01704423,-0.01917476
1691758658110219,-0.07661445,-0.12449849,9.88326454,-0.02450108,0.00319579,-0.01810949
1691758658112287,-0.08619126,-0.05746084,9.81143856,-0.03195793,-0.02130529,-0.02237055
1691758658114292,-0.02394202,-0.00478840,9.91199493,-0.02982740,-0.03834952,-0.00639159
1691758658116258,0.06224924,0.11971009,9.80665016,-0.03834952,-0.05752428,-0.01065264
1691758658118216,-0.07182605,0.10534488,9.85932255,-0.04474111,-0.05645901,-0.01278317
1691758658120228,0.10534488,0.07661445,9.79707336,-0.04261058,-0.07989483,-0.01704423
1691758658122307,-0.01915361,-0.09097967,9.83538055,-0.05965481,-0.09267800,-0.01065264
1691758658124320,-0.18195933,-0.18195933,10.03649330,-0.09587380,-0.07776430,-0.00958738
1691758658126263,-0.08140286,-0.07661445,9.93114853,-0.08841695,-0.10652644,-0.00852212
1691758658128245,-0.09097967,0.00000000,10.03170490,-0.08735169,-0.10546118,-0.00639159
1691758658130245,-0.05267244,0.04788403,9.93593693,-0.08522116,-0.09693906,-0.01384844
1691758658132241,-0.10055647,0.04309563,9.93114853,-0.06924219,-0.09161274,-0.00319579
1691758658134223,-0.17238252,0.12449849,9.92157173,-0.04900216,-0.06285060,-0.00426106
1691758658136243,-0.15801731,0.10534488,9.82101536,-0.03089267,-0.05965481,-0.02024002
1691758658138340,-0.29688102,0.06703765,9.97903252,-0.02982740,-0.05113269,-0.02876214
1691758658140222,-0.19153613,0.13886370,9.92636013,-0.03408846,-0.04154531,-0.00639159
1691758658142252,-0.13886370,0.10055647,9.84974575,-0.03834952,-0.03728426,-0.00639159
1691758658144217,-0.33997664,0.04309563,9.99818611,-0.02663161,-0.04793690,-0.00213053
1691758658146213,-0.13886370,0.09097967,9.86411095,-0.02876214,-0.03621899,-0.00532632
1691758658148258,-0.29688102,0.00957681,10.14183807,-0.02450108,-0.03941479,-0.01917476
1691758658150225,-0.18195933,0.08619126,10.07480049,-0.02450108,-0.04687164,-0.03515373
1691758658152220,-0.06703765,0.07661445,9.97903252,-0.03302320,-0.02876214,-0.02556635
1691758658154257,-0.31124622,0.06224924,10.18014526,-0.02876214,-0.02343582,-0.03515373
1691758658156291,-0.01915361,0.15801731,10.02212811,-0.03302320,-0.01171791,-0.03621899
1691758658158232,-0.23942018,-0.03830723,10.25197124,-0.04474111,0.00000000,-0.02556635
1691758658160198,-0.26336220,0.01915361,10.26633644,-0.04048005,-0.00745685,-0.01384844
1691758658162291,-0.14844051,-0.05267244,10.14183807,-0.05326322,0.00000000,-0.02024002
1691758658164305,-0.36870706,-0.02394202,10.35252857,-0.06391586,-0.00106526,-0.00426106
1691758658166243,-0.05267244,0.11492168,10.19929886,-0.07563377,-0.00213053,-0.01278317
1691758658168255,-0.16280572,-0.04788403,10.28549004,-0.07776430,-0.00745685,-0.00639159
1691758658170229,-0.16759412,0.11971009,10.29506683,-0.08841695,0.00852212,-0.00745685
1691758658172318,-0.13886370,-0.05746084,10.17056847,-0.06924219,0.00000000,0.01171791
1691758658174291,-0.37828386,-0.01915361,10.34295177,-0.06391586,0.01810949,-0.00532632
1691758658176225,-0.10534488,0.08140286,10.20887566,-0.05645901,0.02024002,-0.00532632
1691758658178217,-0.15322891,-0.08140286,10.28549004,-0.04580637,0.00319579,-0.02450108
1691758658180227,-0.14844051,0.23463176,10.33337498,-0.05752428,0.00106526,-0.01810949
1691758658182257,-0.11492168,-0.04788403,10.24239445,-0.04261058,-0.01384844,-0.02556635
1691758658184235,-0.32082301,0.01915361,10.38125896,-0.02663161,-0.03089267,-0.02556635
1691758658186221,-0.09097967,0.06224924,10.28070164,-0.02663161,-0.03941479,-0.03621899
1691758658188289,-0.14365210,-0.18674773,10.31422138,-0.03621899,-0.04580637,-0.03515373
1691758658190251,-0.14365210,0.24899697,10.29985619,-0.03834952,-0.03834952,-0.04367584
1691758658192227,-0.09097967,-0.03351882,10.14183807,-0.05539375,-0.02876214,-0.03621899
1691758658194229,-0.25378537,0.09097967,10.15620327,-0.06072007,-0.01065264,-0.02982740
1691758658196251,-0.18674773,0.02873042,10.07958889,-0.04900216,0.00213053,-0.01810949
1691758658198242,-0.33039984,-0.34476504,10.13226128,-0.06817693,0.01704423,-0.01917476
1691758658200212,-0.30645782,0.15801731,10.15620327,-0.05326322,0.01065264,-0.02024002
1691758658202254,-0.24899697,-0.24420857,10.10353088,-0.05113269,0.00532632,-0.00745685
1691758658204248,-0.22505496,0.11492168,10.09395409,-0.04580637,0.00000000,0.00958738
1691758658206289,-0.07661445,0.20111294,10.08916569,-0.05113269,-0.00639159,0.00000000
1691758658208295,-0.17238252,-0.30166942,10.11789608,-0.06178534,-0.02769688,0.00532632
1691758658210211,-0.14365210,0.26336220,10.07480049,-0.06391586,-0.04048005,0.01278317
1691758658212313,-0.22984336,-0.19632454,10.12268448,-0.05219796,-0.02769688,0.00639159
1691758658214308,-0.08619126,0.30645782,9.95030212,-0.05326322,-0.01278317,-0.00426106
1691758658216238,-0.25857377,-0.12449849,9.97903252,-0.06072007,-0.00532632,0.01917476
1691758658218224,-0.26336220,-0.02873042,9.90720654,-0.03941479,0.03089267,0.00000000
1691758658220222,-0.14365210,0.22984336,9.86889935,-0.01491370,0.06178534,-0.01704423
1691758658222303,-0.21547815,-0.28730419,9.91199493,-0.03408846,0.08096009,-0.02876214
1691758658224255,-0.08140286,0.22984336,9.77313137,-0.05326322,0.08096009,-0.02343582
1691758658226216,-0.29688102,-0.00478840,9.94072533,-0.06817693,0.07776430,-0.02556635
1691758658228244,-0.27293900,0.04309563,9.86889935,-0.05645901,0.05645901,-0.02556635
1691758658230247,-0.12449849,0.26336220,9.81622696,-0.06178534,0.03621899,-0.01597897
1691758658232252,-0.29209262,-0.30645782,9.89762974,-0.05752428,0.01384844,-0.01278317
1691758658234155,0.00000000,0.10055647,9.73961258,-0.05645901,-0.00213053,-0.01278317
1691758658236247,-0.12449849,-0.00957681,9.90720654,-0.05539375,0.00958738,-0.00532632
1691758658238253,-0.07182605,-0.01436521,9.81622696,-0.04900216,-0.00532632,0.01491370
1691758658240236,0.05267244,0.32561144,9.73003578,-0.03302320,0.00213053,0.01278317
1691758658242228,-0.28251579,-0.13886370,9.87847614,-0.01917476,0.01810949,0.01384844
1691758658244218,-0.10534488,0.09576806,9.68215179,-0.02982740,0.02450108,0.00319579
1691758658246239,-0.32561144,-0.05746084,9.90720654,-0.03941479,0.02024002,0.03941479
1691758658248307,-0.33518824,-0.19632454,9.90241814,-0.05432849,0.01491370,0.02876214
1691758658250254,-0.01915361,0.18195933,9.85453415,-0.05432849,-0.00213053,0.03089267
1691758658252171,-0.26336220,-0.03351882,10.06522369,-0.05645901,-0.02130529,0.01384844
1691758658254279,-0.00478840,0.15322891,9.86411095,-0.05539375,-0.03302320,0.00852212
1691758658256269,-0.16280572,0.10534488,10.04607010,-0.06391586,-0.05113269,-0.00426106
1691758658258240,-0.21068975,-0.13407530,9.97424412,-0.05006743,-0.05006743,0.00852212
1691758658260207,0.03351882,0.10055647,9.88326454,-0.05432849,-0.04154531,0.00639159
1691758658262301,-0.13407530,0.20111294,9.98860931,-0.04048005,-0.02982740,0.01597897
1691758658264284,-0.07182605,0.17717093,9.84495735,-0.04048005,-0.00852212,0.00639159
1691758658266282,-0.19632454,0.22026655,9.98382092,-0.02769688,0.01810949,0.00106526
1691758658268261,-0.34476504,0.00957681,10.00776291,-0.02130529,0.03515373,-0.01704423
1691758658270225,-0.06224924,0.12449849,9.94072533,-0.02343582,0.04261058,-0.00106526
1691758658272285,-0.49320555,-0.20590134,10.24718285,-0.02876214,0.04900216,-0.00532632
1691758658274347,-0.23463176,-0.03830723,10.03170490,-0.05113269,0.04580637,0.01278317
1691758658276225,-0.19153613,0.05267244,10.13226128,-0.05858954,0.03728426,0.00319579
1691758658278233,-0.39264908,-0.14365210,10.25675964,-0.04900216,0.03089267,0.00213053
1691758658280246,-0.22026655,0.03351882,10.03170490,-0.03195793,0.03834952,-0.00532632
1691758658282237,-0.16759412,0.05746084,10.11310768,-0.01810949,0.03195793,0.00745685
1691758658284307,-0.22505496,-0.01915361,10.11789608,0.00213053,0.04687164,0.01171791
1691758658286253,-0.19153613,0.01915361,10.06522369,0.01278317,0.04367584,-0.00106526
1691758658288322,-0.28251579,-0.01915361,10.19929886,0.01704423,0.04793690,-0.00532632
1691758658290226,0.08619126,0.17717093,9.96945572,0.03621899,0.05858954,0.01278317
1691758658292286,-0.21547815,0.01915361,10.05564690,0.03195793,0.05432849,0.01491370
1691758658294222,-0.15801731,0.14365210,10.01255131,0.02450108,0.03302320,0.02450108
1691758658296239,0.07661445,0.10534488,9.97903252,0.01491370,0.02876214,0.01278317
1691758658298300,-0.33997664,-0.20590134,10.10353088,-0.00106526,0.01171791,0.01597897
1691758658300231,-0.11492168,0.19632454,9.95987892,-0.01597897,0.00319579,0.00639159
1691758658302273,-0.15801731,0.11013328,9.99339771,-0.03302320,0.00213053,0.00639159
1691758658304231,-0.09097967,0.21068975,9.89762974,-0.03408846,0.00639159,0.00532632
1691758658306321,-0.01436521,0.07182605,9.84016895,-0.02450108,0.01597897,0.01171791
1691758658308279,-0.24899697,0.09576806,9.95509052,-0.01171791,0.03834952,0.00745685
1691758658310268,-0.18674773,0.22984336,9.88326454,0.00319579,0.03302320,0.00745685
1691758658312289,-0.15322891,0.21068975,9.95030212,0.00000000,0.05006743,0.02024002
1691758658314263,-0.22026655,0.07182605,9.99818611,-0.00106526,0.05326322,0.00213053
1691758658316259,-0.02394202,0.14844051,9.96945572,0.01065264,0.03834952,0.00958738
1691758658318226,-0.33997664,-0.10534488,10.14183807,0.01384844,0.01704423,0.00319579
1691758658320230,-0.24420857,0.09097967,10.02212811,0.00852212,0.01171791,0.00745685
1691758658322270,-0.15801731,0.06224924,10.15620327,-0.00213053,-0.01065264,-0.01171791
1691758658324259,-0.06703765,-0.01915361,10.13704967,-0.00319579,-0.03302320,-0.00639159
1691758658326226,0.01436521,0.19632454,10.08916569,-0.01384844,-0.03515373,-0.01278317
1691758658328243,-0.18674773,-0.07182605,10.24239445,-0.00532632,-0.03834952,0.00213053
1691758658330255,-0.10534488,0.05746084,10.08916569,0.00745685,-0.02343582,0.00532632
1691758658332252,-0.18195933,0.00000000,10.18014526,0.00213053,0.01171791,0.03941479
1691758658334234,-0.13886370,0.11492168,9.96466732,0.00106526,0.04048005,0.01704423
1691758658336230,-0.05746084,0.16759412,10.01255131,-0.00213053,0.06817693,0.02450108
1691758658338318,-0.29209262,-0.05746084,10.14662647,-0.00426106,0.09161274,0.02876214
1691758658340219,-0.23463176,0.11971009,9.90241814,0.00745685,0.10226539,0.01384844
1691758658342226,-0.39264908,0.06703765,10.09395409,0.01278317,0.10546118,-0.01171791
1691758658344224,-0.34955344,-0.11013328,10.00776291,0.02024002,0.09800433,-0.01065264
1691758658346264,-0.14844051,0.03830723,9.97424412,0.00426106,0.07563377,-0.01065264
1691758658348300,-0.28730419,-0.18674773,10.12268448,0.00852212,0.05645901,-0.01704423
1691758658350223,-0.01915361,0.17238252,9.84495735,-0.01491370,0.05645901,-0.00745685
1691758658352225,-0.15801731,0.21068975,9.99339771,0.00000000,0.05432849,0.00426106
1691758658354234,-0.12928689,-0.01915361,9.87847614,0.02343582,0.05752428,0.01171791
1691758658356425,-0.03351882,0.17238252,9.80665016,0.03941479,0.05858954,0.00958738
1691758658358291,-0.36391866,-0.16280572,10.00776291,0.05858954,0.05539375,0.00000000
1691758658360209,-0.12449849,0.05746084,9.82101536,0.07882957,0.04154531,0.01810949
1691758658362281,-0.24420857,0.16759412,10.07480049,0.07989483,0.03302320,0.01597897
1691758658364232,-0.06703765,0.05267244,9.84974575,0.06178534,0.02024002,-0.00106526
1691758658366292,-0.21547815,0.11013328,10.07480049,0.06285060,0.00639159,0.00426106
1691758658368254,-0.29209262,-0.05746084,10.09874249,0.06285060,0.00745685,0.00745685
1691758658370219,-0.09097967,-0.00478840,9.84495735,0.05219796,0.02982740,-0.00852212
1691758658372390,-0.26336220,-0.00478840,10.02691650,0.02982740,0.06391586,0.00745685
1691758658374260,-0.11013328,-0.00957681,9.70130539,0.03302320,0.06498113,0.00745685
1691758658376246,-0.02394202,0.13886370,9.72524738,0.04048005,0.08628642,-0.00852212
1691758658378261,-0.35913026,0.04309563,10.00297451,0.02663161,0.09480853,-0.02982740
1691758658380259,-0.08140286,0.07661445,9.73482418,0.03621899,0.08841695,-0.02024002
1691758658382237,-0.26815060,0.13886370,9.91199493,0.03408846,0.05326322,-0.00745685
1691758658384262,-0.35434186,-0.07182605,9.92157173,0.04261058,0.04687164,-0.01278317
1691758658386228,-0.02873042,0.11492168,9.84495735,0.03195793,0.02556635,-0.01597897
1691758658388269,-0.34955344,0.06224924,10.11310768,0.03515373,0.00532632,0.00213053
1691758658390249,-0.00957681,0.04788403,9.82101536,0.04154531,-0.01810949,-0.00213053
1691758658392253,-0.03351882,0.13407530,9.96466732,0.05645901,-0.03515373,-0.01491370
1691758658394239,-0.04788403,0.01436521,9.84974575,0.05432849,-0.02769688,-0.00319579
1691758658396249,0.01436521,0.09097967,9.80186176,0.04687164,-0.02876214,-0.01384844
1691758658398287,-0.35434186,0.09576806,10.00776291,0.02556635,-0.02130529,-0.03302320
1691758658400234,-0.11971009,-0.00478840,9.77791977,0.01917476,-0.01917476,-0.01171791
1691758658402229,-0.18195933,-0.02873042,9.93593693,0.02556635,0.01384844,-0.01597897
1691758658404226,-0.22505496,0.04309563,10.02212811,0.01810949,0.00958738,-0.01278317
1691758658406273,-0.03830723,0.04309563,9.84016895,0.01171791,0.01491370,-0.02876214
1691758658408243,-0.37828386,0.18674773,10.02691650,0.01810949,0.01810949,-0.00213053
1691758658410209,-0.22026655,0.08140286,9.88326454,0.04261058,0.01597897,-0.00106526
1691758658412395,-0.20111294,0.08619126,9.94551373,0.04580637,0.02556635,0.02450108
1691758658414298,-0.19153613,0.19153613,9.81622696,0.05645901,0.04367584,0.00213053
1691758658416250,-0.14365210,0.03351882,9.80186176,0.06817693,0.03941479,0.01065264
1691758658418226,-0.31124622,0.24899697,9.96945572,0.06604639,0.04474111,0.00958738
1691758658420185,-0.18195933,0.27293900,9.87847614,0.05965481,0.03621899,0.02237055
1691758658422326,-0.12449849,0.14365210,9.93114853,0.08202536,0.02556635,0.01065264
1691758658424285,-0.18674773,0.16280572,9.88326454,0.08096009,0.03515373,0.00000000
1691758658426335,-0.10055647,0.16280572,9.89762974,0.07776430,0.04261058,-0.01065264
1691758658428229,-0.07182605,0.09097967,10.02212811,0.06817693,0.04154531,0.00213053
1691758658430274,-0.21068975,0.06703765,9.95509052,0.07030746,0.03834952,0.01597897
1691758658432350,-0.13886370,0.02394202,10.07001209,0.05006743,0.03834952,-0.00639159
1691758658434233,-0.08619126,0.08619126,10.09395409,0.04580637,0.03834952,-0.01278317
1691758658436269,-0.03351882,0.15322891,10.05085850,0.04900216,0.03089267,-0.01278317
1691758658438308,-0.25857377,0.08140286,10.16578007,0.05645901,0.02450108,-0.00852212
1691758658440235,-0.18674773,0.01915361,10.05564690,0.04474111,0.02876214,-0.01278317
1691758658442235,-0.17238252,-0.07182605,10.18493366,0.04580637,0.03515373,-0.00532632
1691758658444229,-0.17717093,0.02873042,9.94072533,0.04900216,0.05326322,-0.00532632
1691758658446253,-0.11013328,0.14844051,10.00297451,0.04900216,0.05752428,-0.00532632
1691758658448300,-0.20111294,0.20590134,10.10831928,0.04474111,0.06391586,-0.00852212
1691758658450236,-0.12449849,0.18195933,9.93114853,0.06391586,0.06178534,-0.01278317
1691758658452231,-0.24899697,0.11971009,10.06522369,0.07776430,0.06391586,-0.01917476
1691758658454267,-0.17717093,0.13407530,9.95987892,0.09906960,0.05432849,-0.01065264
1691758658456360,-0.14365210,0.13407530,9.97424412,0.10013486,0.02663161,0.01171791
1691758658458278,-0.27772740,0.10055647,10.08916569,0.09054748,0.01171791,0.01278317
1691758658460213,-0.01915361,0.12449849,9.86889935,0.08202536,-0.00213053,0.01704423
1691758658462319,-0.09097967,0.09576806,10.05085850,0.07350325,-0.02343582,0.00852212
1691758658464304,0.00000000,0.08140286,9.85453415,0.06178534,-0.02237055,-0.00319579
1691758658466240,-0.09576806,0.05746084,9.91678333,0.07030746,-0.01171791,-0.00852212
1691758658468234,-0.23463176,0.09576806,10.06522369,0.07776430,0.00639159,0.00000000
1691758658470262,-0.01436521,0.10534488,9.83059216,0.07137272,0.01597897,0.00000000
1691758658472258,-0.21068975,0.04788403,10.05085850,0.05326322,0.03834952,-0.01384844
1691758658474252,-0.14844051,0.06224924,9.95030212,0.05539375,0.05645901,-0.02450108
1691758658476306,-0.17717093,0.07661445,9.91199493,0.06391586,0.07030746,-0.02024002
1691758658478254,-0.42616791,0.16759412,10.12268448,0.05965481,0.06285060,-0.02237055
1691758658480265,-0.19632454,0.04309563,9.90241814,0.04900216,0.05326322,-0.02556635
1691758658482250,-0.38307226,-0.02873042,10.14183807,0.05219796,0.05965481,-0.02130529
1691758658484268,-0.22505496,0.01915361,10.06043530,0.04900216,0.07030746,-0.01810949
1691758658486232,-0.07661445,0.11971009,9.96945572,0.05113269,0.07243798,-0.00319579
1691758658488270,-0.31603462,0.26815060,10.16099167,0.06711166,0.07456851,-0.00213053
1691758658490248,-0.08619126,0.13407530,9.88805294,0.09374327,0.07350325,-0.00532632
1691758658492268,-0.21068975,0.13886370,10.11789608,0.09800433,0.05965481,-0.00958738
1691758658494238,-0.20111294,0.09097967,10.06522369,0.10652644,0.03302320,0.00532632
1691758658496251,-0.12928689,-0.05746084,9.98382092,0.10013486,0.00958738,0.00639159
1691758658498396,-0.33039984,0.14365210,10.20887566,0.07882957,-0.01597897,0.01384844
1691758658500218,0.02873042,-0.00957681,9.98382092,0.05752428,-0.03515373,0.00639159
1691758658502279,-0.09576806,-0.03351882,10.05564690,0.06285060,-0.05432849,0.01384844
1691758658504241,-0.11013328,0.12928689,9.99818611,0.06498113,-0.05539375,0.00639159
1691758658506339,-0.01436521,-0.05267244,9.87847614,0.05752428,-0.04580637,0.01810949
1691758658508262,-0.23942018,0.18195933,10.07001209,0.05113269,-0.03621899,-0.00852212
1691758658510248,-0.05267244,0.01915361,9.88805294,0.03834952,-0.02876214,-0.00745685
1691758658512295,-0.20590134,-0.03351882,9.98860931,0.03302320,0.00639159,-0.02982740
1691758658514308,-0.23942018,0.23463176,10.05085850,0.03621899,-0.00532632,-0.00852212
1691758658516260,-0.16759412,-0.12928689,10.00776291,0.02024002,0.01384844,-0.02982740
1691758658518232,-0.36391866,0.22984336,10.18493366,0.02876214,0.03302320,-0.02130529
1691758658520242,-0.27772740,-0.06224924,10.11310768,0.03728426,0.04048005,-0.03408846
1691758658522287,-0.35434186,-0.11013328,10.19929886,0.04793690,0.04793690,-0.02130529
1691758658524270,-0.34955344,0.27293900,10.21366405,0.05432849,0.07563377,-0.02769688
1691758658526280,-0.27772740,-0.19632454,10.15141487,0.06072007,0.09267800,-0.02237055
1691758658528267,-0.27772740,0.35434186,10.19451046,0.05858954,0.10759171,-0.01917476
1691758658530190,-0.22984336,0.11013328,10.09874249,0.05326322,0.11717909,-0.01384844
1691758658532413,-0.26815060,-0.12449849,10.14183807,0.06178534,0.10865697,-0.00319579
1691758658534288,-0.14844051,0.18195933,10.14662647,0.05858954,0.09693906,-0.00852212
1691758658536371,-0.30645782,-0.20111294,10.18014526,0.07137272,0.08628642,-0.00639159
1691758658538295,-0.24420857,0.21068975,10.22802925,0.07563377,0.06924219,-0.01704423
1691758658540233,-0.11492168,0.12449849,10.22324085,0.07243798,0.06711166,-0.02450108
1691758658542270,-0.05267244,-0.05746084,10.27591324,0.05965481,0.04261058,-0.02982740
1691758658544229,-0.01436521,0.28730419,10.23281765,0.05113269,0.02769688,-0.03195793
1691758658546264,-0.08140286,-0.10534488,10.23281765,0.05539375,0.02130529,-0.03195793
1691758658548305,-0.04788403,0.09097967,10.21366405,0.06285060,0.00745685,-0.03408846
1691758658550224,-0.11013328,0.03830723,10.20887566,0.05645901,-0.01171791,-0.02769688
1691758658552252,-0.07182605,-0.11013328,10.20887566,0.04580637,-0.02663161,-0.02556635
1691758658554253,0.05267244,0.20590134,10.17535686,0.03621899,-0.06178534,-0.01810949
1691758658556306,-0.03351882,-0.10534488,10.23760605,0.00639159,-0.08415589,-0.01491370
1691758658558232,0.01436521,0.04788403,10.18972206,0.00532632,-0.07243798,-0.01810949
1691758658560232,-0.10534488,0.00957681,10.23760605,0.01597897,-0.06178534,-0.00106526
1691758658562339,-0.08140286,-0.00478840,10.20408726,0.01917476,-0.06604639,0.00000000
1691758658564320,-0.01436521,0.31124622,10.08916569,0.02237055,-0.04580637,-0.00745685
1691758658566329,-0.21068975,-0.05267244,10.13226128,0.02769688,-0.02237055,-0.00532632
1691758658568233,-0.07661445,0.21068975,9.95509052,0.03621899,0.00852212,-0.02130529
1691758658570207,-0.22984336,0.12928689,10.02212811,0.02769688,0.02343582,-0.01810949
1691758658572283,-0.37828386,0.02873042,10.07480049,0.04474111,0.04154531,-0.01278317
1691758658574261,-0.19632454,0.22505496,9.92636013,0.04687164,0.05219796,-0.00319579
1691758658576259,-0.38786069,-0.04309563,10.11789608,0.03728426,0.05326322,-0.02024002
1691758658578246,-0.15322891,0.19632454,10.00776291,0.02130529,0.04048005,-0.00958738
1691758658580252,-0.15322891,0.09097967,10.03170490,0.03408846,0.04154531,-0.02024002
1691758658582244,-0.31124622,0.07182605,10.07958889,0.05006743,0.03408846,-0.01810949
1691758658584235,-0.01915361,0.24420857,9.88805294,0.03728426,0.01065264,-0.01810949
1691758658586229,-0.25378537,-0.14844051,10.10831928,0.04154531,0.00958738,-0.01810949
1691758658588304,-0.15801731,0.09576806,10.04607010,0.04261058,0.00106526,-0.02556635
1691758658590249,-0.09576806,0.00478840,10.03649330,0.03834952,-0.01810949,-0.02556635
1691758658592240,-0.23942018,0.01915361,10.12268448,0.02343582,-0.02982740,-0.02450108
1691758658594244,0.04788403,0.16280572,9.93593693,-0.00426106,-0.02024002,-0.01917476
1691758658596245,-0.17717093,-0.19153613,10.10353088,-0.00639159,-0.02663161,-0.02663161
1691758658598306,-0.14844051,0.12449849,10.07001209,0.01597897,-0.02982740,-0.03089267
1691758658600221,-0.15801731,0.00000000,10.01255131,0.01597897,-0.03621899,-0.02450108
1691758658602233,-0.28730419,-0.01915361,10.11789608,-0.00426106,-0.03941479,-0.02876214
1691758658604269,0.00478840,0.16280572,9.95030212,-0.01065264,-0.04048005,-0.02343582
1691758658606324,-0.19632454,-0.13886370,10.00776291,-0.01810949,-0.02663161,-0.01065264
1691758658608264,-0.15322891,0.21547815,9.91199493,-0.02876214,-0.01278317,-0.00426106
1691758658610219,-0.12928689,0.05267244,9.87368774,-0.01171791,0.00213053,0.00639159
1691758658612272,-0.36870706,0.11013328,9.96466732,-0.00319579,0.01065264,0.00106526
1691758658614339,-0.18674773,0.25378537,9.82580376,0.00106526,0.02769688,-0.01704423
1691758658616264,-0.33997664,-0.13886370,9.89284134,0.01171791,0.05006743,-0.02343582
1691758658618240,-0.22026655,0.26336220,9.86411095,0.02450108,0.05219796,-0.01384844
1691758658620208,-0.11013328,0.06703765,9.86411095,0.02663161,0.05113269,-0.01597897
1691758658622266,-0.29688102,0.18195933,9.92157173,0.02982740,0.05965481,0.00319579
1691758658624272,-0.30645782,-0.21068975,10.00776291,0.04367584,0.05432849,0.00852212
1691758658626250,-0.45010993,-0.11492168,10.03649330,0.03408846,0.03302320,0.00745685
1691758658628234,-0.27293900,0.21068975,10.02212811,0.01065264,0.02130529,0.01171791
1691758658630256,-0.33039984,-0.34955344,10.13226128,0.01065264,0.01171791,0.00639159
1691758658632261,-0.19632454,0.06703765,9.99339771,0.00852212,-0.01065264,-0.00958738
1691758658634226,-0.22505496,-0.12928689,10.04128170,-0.00213053,-0.02343582,-0.00639159
1691758658636313,-0.29688102,-0.18195933,10.06522369,-0.01384844,-0.02769688,-0.00958738
1691758658638302,-0.08619126,0.22984336,10.01733971,-0.02982740,-0.01704423,-0.01384844
1691758658640255,-0.18674773,-0.19153613,10.08437729,-0.04154531,-0.00958738,-0.01384844
1691758658642236,-0.05267244,0.18195933,9.95987892,-0.04900216,-0.00958738,-0.01704423
1691758658644265,-0.17238252,0.07182605,10.09874249,-0.02982740,-0.02237055,-0.01597897
1691758658646266,-0.24420857,-0.11492168,10.10353088,-0.03728426,-0.03621899,-0.02237055
1691758658648295,-0.09576806,0.26815060,10.06043530,-0.02876214,-0.05539375,-0.01384844
1691758658650240,-0.25857377,-0.18674773,10.21845245,-0.00426106,-0.09267800,-0.01597897
1691758658652236,-0.06224924,0.15801731,10.01255131,0.02130529,-0.09800433,-0.00213053
1691758658654275,-0.16280572,0.20590134,10.03649330,0.01917476,-0.08948221,0.00319579
1691758658656294,-0.18195933,-0.09576806,9.93593693,0.01384844,-0.07456851,0.00213053
1691758658658297,-0.08140286,0.27293900,9.85453415,0.02024002,-0.05858954,-0.01491370
1691758658660216,-0.37349546,-0.08619126,10.00776291,0.00958738,-0.02450108,-0.01065264
1691758658662348,-0.20590134,0.11971009,9.80665016,-0.00532632,0.00745685,-0.01810949
1691758658664326,-0.33518824,0.11013328,9.91678333,0.00958738,0.04048005,0.00106526
1691758658666278,-0.42137951,-0.10534488,9.89284134,-0.01704423,0.05113269,-0.00745685
1691758658668239,-0.10534488,0.35434186,9.80186176,-0.01171791,0.04793690,-0.00745685
1691758658670233,-0.38786069,0.00957681,10.00297451,-0.00639159,0.04048005,-0.00426106
1691758658672288,-0.12928689,0.16759412,9.71567059,0.01278317,0.03408846,0.01065264
1691758658674240,-0.23942018,0.22984336,9.85932255,-0.00745685,0.01917476,0.01278317
1691758658676375,-0.45489833,-0.19153613,9.84495735,-0.02450108,-0.00532632,0.01065264
1691758658678264,-0.02873042,0.14844051,9.72045898,-0.02024002,-0.00639159,0.00958738
1691758658680269,-0.28251579,-0.04788403,9.97903252,-0.03728426,-0.00639159,0.00319579
1691758658682266,-0.07661445,0.06703765,9.73961258,-0.04474111,-0.01491370,-0.00213053
1691758658684255,-0.11013328,0.25378537,9.84495735,-0.04154531,-0.00958738,-0.00106526
1691758658686225,-0.36391866,0.03351882,9.89762974,-0.01810949,-0.00532632,-0.01491370
1691758658688370,0.02394202,0.25857377,9.76834297,-0.01171791,-0.02237055,-0.01171791
1691758658690246,-0.33997664,-0.03830723,10.08916569,-0.01810949,-0.03941479,0.00213053
1691758658692297,-0.22026655,-0.05746084,9.88326454,-0.02130529,-0.04474111,0.00106526
1691758658694234,-0.10055647,0.15801731,9.97903252,-0.02982740,-0.03941479,0.00000000
1691758658696261,-0.32561144,0.07182605,10.04607010,-0.02450108,-0.04687164,0.01278317
1691758658698322,0.06703765,0.19632454,9.84974575,-0.03834952,-0.06178534,0.01704423
1691758658700221,-0.20590134,0.00957681,10.09874249,-0.02663161,-0.05965481,0.00532632
1691758658702250,-0.17717093,0.05267244,9.92157173,0.00000000,-0.04793690,0.00958738
1691758658704266,-0.14844051,0.15801731,9.91199493,0.00319579,-0.04474111,0.00426106
1691758658706359,-0.44053310,-0.00957681,10.03170490,-0.00745685,-0.05113269,0.00852212
1691758658708314,-0.04309563,0.15801731,9.76834297,-0.00106526,-0.05113269,0.00852212
1691758658710220,-0.21547815,0.05267244,10.02691650,-0.00426106,-0.04793690,0.00213053
1691758658712289,-0.14365210,0.03830723,9.91199493,-0.02450108,-0.05752428,-0.00426106
1691758658714265,-0.05746084,0.09097967,9.82580376,-0.03834952,-0.05965481,0.00319579
1691758658716280,-0.40222588,-0.02873042,10.02691650,-0.01810949,-0.05113269,-0.00852212
1691758658718237,-0.11492168,0.13886370,9.86889935,-0.01917476,-0.04261058,-0.00213053
1691758658720255,-0.28730419,-0.02394202,10.03170490,-0.02343582,-0.03621899,0.00958738
1691758658722314,-0.25378537,-0.05267244,9.95987892,-0.03089267,-0.02663161,0.01384844
1691758658724287,-0.07661445,0.16759412,9.89284134,-0.01704423,-0.02130529,-0.00426106
1691758658726283,-0.32561144,0.12928689,10.08437729,-0.00319579,-0.02556635,0.01491370
1691758658728275,-0.13886370,0.28251579,9.91678333,-0.01171791,-0.02556635,0.01491370
1691758658730257,-0.31124622,0.09576806,10.02212811,-0.02343582,-0.03834952,-0.00106526
1691758658732285,-0.29209262,0.00000000,9.95987892,-0.01491370,-0.05006743,-0.00958738
1691758658734302,-0.15801731,0.03830723,9.95509052,-0.00852212,-0.04900216,-0.00426106
1691758658736286,-0.31603462,-0.05267244,10.06043530,-0.00319579,-0.04687164,-0.01278317
1691758658738272,-0.09576806,0.21547815,9.86889935,-0.03302320,-0.04261058,-0.01491370
1691758658740250,-0.18674773,0.08619126,10.01733971,-0.04793690,-0.03408846,0.00213053
1691758658742391,-0.12928689,0.03351882,9.90241814,-0.03728426,-0.02024002,0.00852212
1691758658744255,-0.11971009,0.13407530,9.96466732,-0.03728426,-0.00852212,0.00213053
1691758658746313,-0.37349546,-0.06703765,10.05085850,-0.04474111,-0.00958738,0.00000000
1691758658748370,-0.22505496,0.04788403,9.84495735,-0.03621899,-0.01917476,0.01810949
1691758658750296,-0.31124622,-0.01436521,10.06043530,-0.02130529,-0.02982740,0.01278317
1691758658752263,-0.13407530,0.00957681,9.91199493,-0.03728426,-0.03621899,0.00532632
1691758658754272,-0.03351882,0.12449849,9.89762974,-0.05113269,-0.04793690,-0.00745685
1691758658756422,-0.16280572,-0.00957681,9.93114853,-0.06178534,-0.04474111,-0.00106526
1691758658758297,-0.08619126,0.12449849,9.73003578,-0.06924219,-0.04261058,0.00000000
1691758658760224,-0.35434186,0.02394202,9.96466732,-0.06498113,-0.03834952,0.00319579
1691758658762345,-0.25857377,-0.00957681,9.72524738,-0.03834952,-0.02130529,0.00106526
1691758658764362,-0.15801731,0.13886370,9.74440098,-0.01917476,-0.01065264,-0.01065264
1691758658766270,-0.28730419,0.05267244,9.92157173,-0.03515373,0.00000000,0.00532632
1691758658768283,-0.07661445,0.22026655,9.77313137,-0.03089267,0.00000000,0.01917476
1691758658770240,-0.30645782,0.17238252,10.02212811,-0.01917476,0.00639159,0.02130529
1691758658772345,-0.19632454,0.07661445,9.84016895,-0.01704423,0.00319579,0.01065264
1691758658774255,-0.17238252,0.11971009,9.89762974,-0.02663161,-0.00532632,0.00852212
1691758658776243,-0.40222588,-0.16280572,10.06522369,-0.02876214,-0.00213053,0.00106526
1691758658778261,-0.07182605,0.04309563,9.74918938,-0.03302320,0.00426106,-0.00426106
1691758658780294,-0.23942018,0.15322891,9.97903252,-0.05858954,0.02237055,0.00000000
1691758658782304,-0.15801731,0.01915361,9.80665016,-0.04580637,0.02769688,0.00639159
1691758658784293,-0.01915361,0.25857377,9.77313137,-0.04474111,0.04048005,0.00106526
1691758658786228,-0.30166942,0.09097967,9.98860931,-0.04367584,0.02982740,0.01278317
1691758658788300,-0.08140286,0.01915361,9.68694019,-0.04900216,0.01065264,0.01597897
1691758658790243,-0.31124622,0.02394202,9.90720654,-0.04900216,0.00213053,0.00319579
1691758658792273,-0.26336220,-0.15801731,9.84974575,-0.05113269,0.00745685,0.00000000
1691758658794236,-0.07661445,0.13886370,9.77791977,-0.03941479,0.00106526,0.00319579
1691758658796262,-0.31603462,0.16759412,10.01255131,-0.04900216,-0.00639159,-0.00213053
1691758658798245,-0.01436521,0.12449849,9.72524738,-0.04580637,0.00319579,-0.00958738
1691758658800247,-0.14844051,0.22984336,9.87847614,-0.02663161,0.01171791,0.00000000
1691758658802308,-0.22505496,0.06224924,9.94551373,-0.01810949,0.01597897,-0.00426106
1691758658804229,-0.16280572,0.07661445,9.84974575,-0.03302320,0.02130529,-0.01491370
1691758658806349,-0.45010993,0.07661445,10.04607010,-0.04048005,0.00426106,0.00639159
1691758658808318,-0.12928689,-0.00957681,9.85453415,-0.03728426,-0.00958738,0.01491370
1691758658810227,-0.16759412,0.07182605,10.02691650,-0.03728426,-0.01704423,0.01065264
1691758658812334,-0.13886370,0.10055647,10.10353088,-0.05113269,-0.01491370,0.00958738
1691758658814318,-0.04309563,0.13407530,9.93114853,-0.04687164,-0.01704423,0.00532632
1691758658816283,-0.33518824,0.23463176,10.09874249,-0.02343582,-0.00852212,-0.00319579
1691758658818384,-0.16280572,0.10055647,9.86889935,-0.00852212,0.02237055,0.00106526
1691758658820242,-0.24899697,0.09576806,9.88326454,-0.01810949,0.07776430,0.00000000
1691758658822291,-0.32561144,0.05267244,9.89284134,-0.01704423,0.12570120,-0.00213053
1691758658824252,-0.22505496,0.01915361,9.74918938,-0.01491370,0.13635385,0.00852212
1691758658826231,-0.49320555,0.12928689,9.94551373,-0.02024002,0.14487596,0.00958738
1691758658828243,-0.32082301,0.01436521,9.77313137,-0.01810949,0.13209279,0.00213053
1691758658830245,-0.26815060,0.05267244,9.78749657,-0.02450108,0.09800433,-0.00745685
1691758658832305,-0.18674773,0.03351882,9.84495735,-0.04367584,0.05858954,0.01065264
1691758658834252,-0.06703765,0.05267244,9.81143856,-0.05219796,0.04048005,-0.00745685
1691758658836246,-0.24899697,0.11492168,9.91678333,-0.03302320,-0.01384844,-0.00532632
1691758658838350,-0.01915361,0.12449849,9.80186176,-0.03302320,-0.02343582,0.01171791
1691758658840281,-0.01915361,0.06224924,9.95509052,-0.03195793,-0.04580637,0.01171791
1691758658842264,0.00957681,0.14844051,9.97903252,-0.03621899,-0.06391586,0.00532632
1691758658844230,-0.03351882,0.05267244,9.94551373,-0.04367584,-0.07030746,0.00000000
1691758658846258,-0.22505496,0.08140286,10.06522369,-0.04580637,-0.08415589,-0.01704423
1691758658848359,-0.06224924,0.09097967,10.03649330,-0.04154531,-0.10759171,-0.01917476
1691758658850245,-0.17238252,-0.11492168,10.17056847,-0.04687164,-0.08202536,-0.01384844
1691758658852245,-0.13407530,0.11492168,10.02212811,-0.05326322,-0.07989483,-0.01704423
1691758658854240,-0.11971009,0.08140286,10.08916569,-0.05006743,-0.10226539,-0.00958738
1691758658856259,-0.19632454,0.08140286,10.24718285,-0.05326322,-0.08735169,-0.01065264
1691758658858438,-0.11492168,0.10534488,10.13704967,-0.04367584,-0.07989483,-0.01065264
1691758658860221,-0.28730419,-0.07661445,10.26154804,-0.05965481,-0.08309063,-0.00532632
1691758658862289,-0.24420857,0.10534488,10.13226128,-0.06498113,-0.07669904,-0.00106526
1691758658864330,-0.30645782,-0.05746084,10.23760605,-0.05539375,-0.07030746,-0.00852212
1691758658866264,-0.20590134,0.07661445,10.32379818,-0.05752428,-0.06178534,-0.01278317
1691758658868277,-0.11971009,0.17717093,10.15141487,-0.07243798,-0.04793690,-0.01917476
1691758658870190,-0.33039984,0.03830723,10.24718285,-0.07456851,-0.03515373,-0.01491370
1691758658872295,-0.31124622,0.07182605,10.17056847,-0.06178534,-0.02237055,-0.00958738
1691758658874275,-0.35434186,0.04788403,10.12747288,-0.05219796,0.00852212,-0.00639159
1691758658876257,-0.33039984,0.14365210,10.15141487,-0.05006743,0.00745685,-0.00213053
1691758658878256,-0.18195933,0.20111294,9.97903252,-0.04261058,-0.00319579,0.00852212
1691758658880341,-0.32082301,-0.01436521,9.98382092,-0.01917476,-0.00532632,0.01597897
1691758658882311,-0.11492168,0.22505496,9.93114853,-0.02876214,-0.01384844,0.01065264
1691758658884287,-0.20111294,0.05746084,9.99339771,-0.04687164,-0.02556635,-0.00426106
1691758658886384,-0.26815060,0.08619126,10.06522369,-0.00958738,-0.03834952,0.00000000
1691758658888282,-0.13407530,0.08140286,9.81622696,-0.01384844,-0.02024002,-0.00426106
1691758658890244,-0.14365210,0.10055647,9.86411095,-0.01065264,-0.01384844,0.00319579
1691758658892313,-0.21068975,0.18195933,9.96466732,-0.01810949,-0.00745685,-0.01065264
1691758658894232,-0.23942018,0.08619126,9.75397778,-0.00532632,0.01917476,0.00000000
1691758658896280,-0.23942018,0.32561144,9.92157173,-0.01171791,0.04367584,-0.01278317
1691758658898300,-0.24899697,0.08140286,9.79707336,-0.00958738,0.04261058,0.01171791
1691758658900228,-0.26815060,0.07182605,9.83059216,0.00319579,0.03941479,-0.00106526
1691758658902241,-0.37828386,0.22026655,9.91678333,0.00958738,0.04261058,0.00319579
1691758658904239,-0.20111294,0.09576806,9.85932255,-0.01171791,0.04793690,-0.01704423
1691758658906367,-0.23463176,0.05267244,9.93114853,-0.00958738,0.03941479,0.00639159
1691758658908281,-0.16759412,0.01436521,9.85932255,-0.00426106,0.03834952,-0.01704423
1691758658910216,-0.14844051,-0.03830723,9.84016895,-0.01384844,0.03195793,-0.00532632
1691758658912315,-0.22026655,0.23942018,9.95509052,-0.02024002,0.03941479,0.00532632
1691758658914308,-0.15801731,-0.09576806,9.80665016,-0.01065264,0.04580637,0.01278317
1691758658916291,-0.28730419,-0.02873042,9.83538055,-0.00213053,0.04048005,0.00319579
1691758658918247,-0.20111294,0.21068975,9.85453415,-0.00426106,0.05752428,0.00958738
1691758658920315,-0.24899697,-0.15322891,9.80186176,0.02450108,0.07669904,0.01917476
1691758658922303,-0.28730419,0.21068975,9.81622696,0.03408846,0.09480853,0.02130529
1691758658924337,-0.18195933,0.11013328,9.73482418,0.04687164,0.08948221,0.00532632
1691758658926292,-0.38786069,0.18195933,9.86411095,0.04474111,0.08735169,0.02024002
1691758658928248,-0.20590134,0.22984336,9.77791977,0.04261058,0.08522116,0.01597897
1691758658930386,-0.23942018,-0.09576806,9.76355457,0.04367584,0.07989483,-0.00106526
1691758658932296,-0.33039984,0.14365210,9.78270817,0.02663161,0.06391586,0.00319579
1691758658934312,-0.14844051,-0.04788403,9.72524738,0.02982740,0.04793690,-0.00213053
1691758658936271,-0.23463176,0.16280572,9.73482418,0.03834952,0.04474111,-0.00106526
1691758658938383,-0.10055647,0.13407530,9.65820980,0.02769688,0.04367584,-0.01917476
1691758658940245,-0.23463176,-0.03830723,9.71567059,0.02769688,0.03834952,-0.00106526
1691758658942319,-0.13886370,0.22026655,9.61990261,0.05965481,0.04367584,-0.01810949
1691758658944241,-0.14844051,0.03351882,9.74918938,0.07350325,0.03302320,-0.01278317
1691758658946284,-0.21068975,0.14844051,9.83059216,0.07456851,0.02237055,-0.01384844
1691758658948293,-0.03351882,0.13407530,9.71088219,0.07030746,0.01278317,0.01597897
1691758658950279,-0.25857377,-0.07182605,9.85932255,0.07243798,0.00319579,0.00745685
1691758658952282,-0.16759412,0.17238252,9.75876617,0.05326322,-0.00106526,-0.00106526
1691758658954277,-0.23463176,-0.06224924,9.84016895,0.04048005,0.01278317,-0.00958738
1691758658956360,-0.30645782,-0.02873042,9.84974575,0.02663161,0.03408846,0.00639159
1691758658958292,-0.03351882,0.18195933,9.62469101,0.02024002,0.05539375,0.00213053
1691758658960223,-0.27772740,-0.03351882,9.85453415,0.02769688,0.11185277,0.03302320
1691758658962339,-0.19632454,0.20590134,9.71567059,0.04261058,0.14913702,0.01171791
1691758658964312,-0.20111294,0.01436521,9.70130539,0.03089267,0.16937704,-0.00852212
1691758658966272,-0.43095630,0.01436521,9.87368774,0.03621899,0.18322548,-0.04793690
1691758658968277,-0.23942018,0.13886370,9.60074902,0.04261058,0.16511598,-0.03089267
1691758658970224,-0.41180268,-0.11492168,9.82101536,0.03941479,0.14061491,-0.04474111
1691758658972340,-0.33997664,0.07182605,9.77791977,0.03515373,0.12357067,-0.03302320
1691758658974284,-0.10055647,-0.00478840,9.65820980,0.03941479,0.10013486,-0.04048005
1691758658976282,-0.17238252,-0.00957681,9.83059216,0.05326322,0.06178534,-0.01491370
1691758658978254,0.11013328,0.22984336,9.69651699,0.05326322,0.05113269,-0.03621899
1691758658980271,0.02873042,-0.01436521,9.79707336,0.06817693,0.04474111,-0.02450108
1691758658982365,-0.02394202,0.13886370,9.82580376,0.05965481,0.03515373,-0.02237055
1691758658984245,-0.07661445,0.07182605,9.69651699,0.05219796,0.00639159,-0.01278317
1691758658986352,-0.25857377,-0.01436521,9.91678333,0.04687164,-0.01278317,-0.00319579
1691758658988273,-0.00478840,0.08619126,9.92157173,0.03408846,-0.02343582,0.01491370
1691758658990258,-0.05746084,-0.16280572,9.96945572,0.03302320,-0.03728426,0.00958738
1691758658992248,-0.08619126,0.10055647,9.99339771,0.02343582,-0.05113269,-0.00532632
1691758658994244,-0.09097967,0.00478840,9.91678333,0.02024002,-0.04367584,-0.00852212
1691758658996178,-0.22505496,0.03351882,9.98382092,0.00213053,-0.00745685,-0.00532632
1691758658998314,-0.11492168,0.12449849,9.86889935,-0.00532632,0.03302320,-0.00852212
1691758659000253,-0.35434186,-0.14844051,9.84974575,-0.00426106,0.07456851,0.00213053
1691758659002280,-0.36391866,0.12928689,9.86411095,0.03515373,0.12676647,-0.01597897
1691758659004259,-0.41180268,-0.13886370,9.80665016,0.05539375,0.14381070,-0.00106526
1691758659006327,-0.47884035,0.08619126,9.78749657,0.04154531,0.15659387,-0.01810949
1691758659008286,-0.24420857,0.18674773,9.74440098,0.04154531,0.14700650,0.01597897
1691758659010262,-0.32082301,-0.11971009,9.80665016,0.05006743,0.13102752,-0.00532632
1691758659012293,-0.04309563,0.25378537,9.69651699,0.04048005,0.11078750,0.01597897
1691758659014331,-0.18674773,-0.05746084,9.84016895,0.02237055,0.08628642,-0.01704423
1691758659016311,-0.30166942,-0.06703765,9.80186176,0.02024002,0.06711166,0.00319579
1691758659018273,-0.04309563,0.13407530,9.78270817,0.01171791,0.05539375,-0.02769688
1691758659020235,-0.22026655,-0.28251579,9.94551373,0.01704423,0.05432849,0.00745685
1691758659022446,0.03351882,0.09097967,9.84016895,0.01065264,0.05219796,-0.00852212
1691758659024297,-0.04788403,-0.04309563,10.01255131,0.01704423,0.05219796,0.01384844
1691758659026307,-0.15801731,0.03351882,9.96945572,0.01491370,0.04048005,-0.00426106
1691758659028259,0.05746084,0.32082301,9.96466732,0.02982740,0.02343582,0.00106526
1691758659030266,-0.27772740,-0.22026655,10.12747288,-0.00319579,0.00319579,-0.02130529
1691758659032298,-0.04788403,0.07661445,9.90241814,-0.00213053,-0.01065264,-0.02450108
1691758659034363,-0.11971009,-0.10055647,10.10353088,0.01065264,-0.01810949,-0.02876214
1691758659036341,-0.15322891,-0.04788403,10.12268448,-0.00319579,-0.04900216,-0.02556635
1691758659038303,0.08619126,0.24899697,10.10831928,-0.00106526,-0.05219796,-0.02343582
1691758659040277,-0.20590134,-0.08619126,10.26633644,0.00000000,-0.05752428,0.00532632
1691758659042289,0.03351882,0.26336220,10.13226128,-0.00745685,-0.07137272,-0.00639159
1691758659044270,-0.12449849,-0.09097967,10.42914295,-0.01278317,-0.09161274,-0.00852212
1691758659046263,-0.21068975,-0.11971009,10.42435455,0.00106526,-0.08841695,-0.00106526
1691758659048327,-0.01436521,0.22984336,10.41477776,-0.00745685,-0.09374327,-0.00319579
1691758659050236,-0.23463176,-0.07661445,10.59194851,-0.01597897,-0.10972223,0.00106526
1691758659052253,0.06703765,0.20590134,10.42914295,-0.01065264,-0.11078750,0.01597897
1691758659054249,-0.15801731,-0.09576806,10.63025570,-0.00639159,-0.10226539,0.00745685
1691758659056280,-0.21547815,0.02394202,10.54885292,-0.03089267,-0.10120012,0.00958738
1691758659058299,-0.15801731,0.15801731,10.47223854,-0.02663161,-0.10865697,0.02450108
1691758659060240,-0.28251579,-0.16759412,10.58237171,-0.01917476,-0.09161274,0.00745685
1691758659062406,0.00957681,0.26815060,10.40998936,-0.00639159,-0.06711166,-0.00958738
1691758659064310,-0.23463176,0.00478840,10.50575733,-0.00958738,-0.03728426,0.00852212
1691758659066400,-0.28251579,0.10055647,10.37168217,0.00106526,-0.01491370,-0.00319579
1691758659068300,-0.33997664,0.14844051,10.28070164,-0.00958738,0.00958738,-0.01704423
1691758659070228,-0.47405192,-0.17238252,10.42435455,0.00532632,0.04261058,-0.02343582
1691758659072320,-0.23463176,0.12449849,10.28070164,0.00958738,0.05219796,-0.02024002
1691758659074285,-0.40222588,-0.08140286,10.28070164,0.01597897,0.05113269,-0.02769688
1691758659076417,-0.21547815,0.16280572,10.25675964,0.01597897,0.05645901,-0.03302320
1691758659078266,-0.22505496,0.19153613,10.30943298,0.02876214,0.06391586,-0.02130529
1691758659080280,-0.25857377,-0.02873042,10.31422138,0.02663161,0.07350325,-0.00106526
1691758659082279,-0.17717093,0.20590134,10.22802925,0.01171791,0.06817693,0.00319579
1691758659084261,-0.40701428,-0.10055647,10.19451046,0.02556635,0.05752428,0.00958738
1691758659086252,-0.11013328,0.12449849,10.11310768,0.04261058,0.05326322,0.01917476
1691758659088304,-0.13886370,0.20590134,10.20408726,0.04154531,0.04474111,0.00852212
1691758659090279,-0.04309563,0.02873042,10.08437729,0.02556635,0.00426106,0.01491370
1691758659092278,-0.05746084,0.24899697,10.12268448,0.01491370,-0.00213053,0.00213053
1691758659094244,-0.30645782,-0.11013328,10.14183807,0.00426106,0.00106526,0.00106526
1691758659096265,-0.03351882,-0.04309563,10.05085850,-0.00319579,-0.01278317,-0.00426106
1691758659098411,-0.04309563,0.23942018,10.07958889,-0.01491370,-0.00532632,0.00958738
1691758659100261,-0.17717093,-0.07661445,9.88805294,-0.00213053,0.02024002,0.00319579
1691758659102250,-0.05267244,0.24899697,9.82580376,0.00639159,0.02130529,0.00106526
1691758659104263,-0.32082301,-0.10534488,10.07480049,0.00000000,0.04261058,-0.00639159
1691758659106356,-0.25857377,-0.09576806,9.86411095,0.00319579,0.04687164,-0.01491370
1691758659108246,-0.30166942,-0.04309563,10.06522369,0.02876214,0.05539375,-0.00319579
1691758659110226,-0.23463176,0.03830723,9.81143856,0.03195793,0.05219796,0.00319579
1691758659112349,-0.04788403,0.30166942,9.73961258,0.02237055,0.05752428,0.00106526
1691758659114277,-0.25378537,-0.07661445,10.03170490,0.01704423,0.05432849,0.00426106
1691758659116287,-0.02873042,0.20590134,9.71088219,-0.00319579,0.05326322,0.00639159
1691758659118253,-0.21547815,-0.08140286,9.99339771,-0.01065264,0.02663161,0.00532632
1691758659120251,-0.41659111,-0.12928689,9.95987892,-0.00213053,0.01491370,0.00639159
1691758659122304,-0.02394202,0.19153613,9.74440098,-0.00426106,0.02556635,0.01278317
1691758659124272,-0.31124622,-0.03351882,10.00776291,-0.02237055,0.00639159,0.01065264
1691758659126247,-0.10055647,-0.07182605,9.84974575,-0.01704423,-0.00106526,0.01171791
1691758659128262,-0.22026655,-0.10534488,9.99339771,0.01384844,0.00639159,0.00745685
1691758659130286,-0.31124622,-0.05746084,10.01733971,0.02343582,0.01384844,0.01278317
1691758659132244,0.03351882,0.34476504,9.69172859,0.02450108,0.03941479,0.01810949
1691758659134308,-0.40701428,-0.07182605,9.87368774,0.01278317,0.09800433,0.02450108
1691758659136402,-0.15322891,0.24420857,9.60074902,0.03728426,0.11930962,0.00106526
1691758659138342,-0.26336220,0.03351882,9.80186176,0.04900216,0.13422331,-0.01384844
1691758659140263,-0.48841715,-0.08140286,9.83059216,0.06072007,0.13102752,-0.00745685
1691758659142335,-0.24899697,0.14844051,9.61511421,0.06178534,0.12357067,0.00319579
1691758659144248,-0.27772740,-0.05267244,9.73961258,0.06604639,0.10652644,-0.01384844
1691758659146404,-0.16759412,-0.12449849,9.74918938,0.04580637,0.07882957,0.00426106
1691758659148292,-0.05267244,0.14844051,9.67736340,0.03089267,0.03408846,0.00745685
1691758659150262,-0.22984336,-0.08140286,9.79707336,0.02769688,0.00106526,0.02663161
1691758659152250,0.02394202,0.11013328,9.65342140,-0.00639159,-0.01065264,-0.00532632
1691758659154385,-0.07661445,0.00478840,9.73961258,-0.01917476,-0.03302320,0.00958738
1691758659156339,-0.01436521,-0.11971009,9.73003578,-0.02556635,-0.04261058,-0.00319579
1691758659158313,-0.03351882,0.01436521,9.73003578,-0.03089267,-0.04474111,0.01171791
1691758659160238,-0.10055647,-0.10055647,9.81622696,-0.03408846,-0.06604639,-0.01278317
1691758659162332,0.05267244,0.04788403,9.81143856,-0.02556635,-0.08735169,0.01171791
1691758659164190,-0.18195933,0.03830723,10.00297451,-0.01917476,-0.07776430,0.00213053
1691758659166265,0.01915361,0.03351882,9.84016895,-0.03408846,-0.09480853,0.00532632
1691758659168242,-0.05267244,0.12928689,9.92157173,-0.04367584,-0.10226539,0.00745685
1691758659170224,-0.11971009,0.04309563,9.90720654,-0.04580637,-0.10652644,0.00000000
1691758659172310,-0.09576806,-0.02394202,9.94551373,-0.04474111,-0.10546118,-0.01384844
1691758659174310,-0.14365210,0.03830723,10.03170490,-0.05113269,-0.10759171,0.01171791
1691758659176244,-0.10055647,0.14844051,9.95030212,-0.03834952,-0.10759171,0.00745685
1691758659178297,-0.38786069,-0.03830723,10.16099167,-0.03515373,-0.10226539,-0.00213053
1691758659180286,-0.14844051,0.08619126,10.08916569,-0.04261058,-0.09267800,0.00000000
1691758659182435,-0.10534488,0.02873042,10.00776291,-0.04474111,-0.08735169,0.00532632
1691758659184309,-0.15801731,0.05746084,10.09395409,-0.02876214,-0.07243798,0.00213053
1691758659186244,-0.18195933,0.12449849,9.92157173,-0.02237055,-0.05752428,0.00213053
1691758659188329,-0.38786069,0.06703765,10.13226128,-0.01917476,-0.03621899,0.01065264
1691758659190240,-0.19153613,0.10055647,10.04607010,-0.01171791,-0.03621899,-0.00532632
1691758659192260,-0.20590134,-0.03830723,9.99818611,-0.00958738,-0.03621899,0.00319579
1691758659194248,-0.37828386,0.08619126,10.09395409,0.00000000,-0.03621899,0.01384844
1691758659196411,-0.08619126,0.05267244,9.75876617,0.00426106,-0.04048005,0.01810949
1691758659198303,-0.07182605,0.00957681,9.86411095,0.00852212,-0.05219796,0.00958738
1691758659200282,-0.20111294,0.01436521,9.89762974,0.01278317,-0.05539375,-0.00532632
1691758659202290,-0.10055647,0.00000000,9.66299820,0.01278317,-0.05326322,-0.00106526
1691758659204298,-0.34476504,0.00478840,9.95509052,-0.00852212,-0.05752428,-0.01491370
1691758659206307,-0.16280572,0.00478840,9.81143856,-0.04261058,-0.06178534,0.00000000
1691758659208284,-0.04309563,-0.08140286,9.84974575,-0.05326322,-0.06391586,-0.00639159
1691758659210245,-0.14365210,0.00000000,10.00776291,-0.05752428,-0.07137272,0.00639159
1691758659212322,-0.06703765,0.05746084,9.85453415,-0.06604639,-0.07243798,0.00000000
1691758659214320,-0.21547815,0.17238252,10.05564690,-0.07030746,-0.05858954,0.00852212
1691758659216303,-0.15801731,0.01915361,9.94072533,-0.06072007,-0.06604639,0.00000000
1691758659218323,-0.12449849,-0.04309563,9.92157173,-0.06817693,-0.06072007,-0.00319579
1691758659220259,-0.24420857,0.09576806,10.06043530,-0.06711166,-0.05645901,-0.00639159
1691758659222303,-0.23463176,-0.10055647,9.99818611,-0.04687164,-0.05858954,-0.01065264
1691758659224287,-0.21547815,0.19632454,10.04128170,-0.04580637,-0.05858954,-0.01597897
1691758659226315,-0.14365210,0.11492168,10.01255131,-0.03941479,-0.06072007,-0.01917476
1691758659228360,-0.12928689,0.08619126,10.03649330,-0.02130529,-0.07563377,-0.00426106
1691758659230258,-0.13407530,0.18674773,10.05564690,-0.02130529,-0.07989483,-0.00106526
1691758659232259,-0.27772740,0.01915361,10.08437729,-0.02982740,-0.08202536,-0.00106526
1691758659234251,-0.24899697,0.14844051,10.07001209,-0.02556635,-0.10013486,0.00745685
1691758659236253,-0.21547815,-0.04788403,10.06043530,-0.02556635,-0.10226539,-0.00532632
1691758659238295,-0.20590134,-0.05746084,10.09395409,-0.04261058,-0.09267800,-0.01917476
1691758659240271,-0.07182605,0.13886370,9.98860931,-0.04474111,-0.09161274,-0.02237055
1691758659242305,-0.15801731,-0.00957681,10.11789608,-0.04048005,-0.08522116,0.01384844
1691758659244254,-0.16759412,0.19153613,10.02691650,-0.03941479,-0.07243798,-0.00426106
1691758659246258,-0.20111294,-0.05267244,9.96466732,-0.05219796,-0.06072007,-0.00639159
1691758659248290,-0.34476504,-0.05267244,10.06522369,-0.03941479,-0.04687164,0.00213053
1691758659250285,-0.09097967,0.00478840,9.82101536,-0.02876214,-0.03089267,-0.00958738
1691758659252278,-0.30166942,-0.10055647,9.91678333,-0.03408846,-0.01917476,-0.01384844
1691758659254186,-0.16759412,0.22505496,9.82580376,-0.01491370,-0.00958738,-0.00319579
1691758659256311,-0.33997664,-0.14365210,9.75397778,-0.01278317,0.00000000,0.00213053
1691758659258264,-0.20590134,0.10055647,9.79707336,-0.00426106,-0.00852212,0.00106526
1691758659260235,-0.08619126,0.26815060,9.61511421,0.01597897,-0.01597897,0.00319579
1691758659262288,-0.20590134,-0.02394202,9.70130539,0.02769688,-0.02343582,0.02130529
1691758659264306,-0.31124622,0.18195933,9.74440098,0.01491370,-0.02130529,0.00639159
1691758659266404,-0.15322891,-0.12928689,9.58159542,-0.00106526,-0.02769688,0.01597897
1691758659268265,-0.29209262,-0.12449849,9.79228497,-0.00319579,-0.03195793,-0.00106526
1691758659270263,-0.13407530,0.10534488,9.68215179,-0.02769688,-0.02556635,-0.00319579
1691758659272319,-0.07182605,-0.07661445,9.66299820,-0.03408846,-0.01597897,-0.01065264
1691758659274269,-0.13407530,0.26336220,9.77313137,-0.02876214,-0.00639159,-0.00106526
1691758659276310,-0.06224924,0.08140286,9.57680702,-0.02024002,0.00639159,-0.01704423
1691758659278290,-0.19632454,0.08619126,9.73482418,-0.01384844,0.01491370,-0.01917476
1691758659280285,-0.12449849,-0.06224924,9.66778660,-0.01384844,0.00852212,-0.00426106
1691758659282257,-0.17717093,0.11013328,9.76355457,-0.01278317,0.00745685,0.00426106
1691758659284325,-0.15322891,0.23942018,9.78270817,-0.00213053,0.01704423,0.00000000
1691758659286253,-0.18195933,-0.08619126,9.79228497,0.00639159,0.01065264,-0.00958738
1691758659288335,-0.18674773,0.28730419,9.84016895,-0.00852212,0.01065264,-0.01171791
1691758659290259,-0.21547815,-0.04788403,9.79707336,0.00000000,0.01278317,-0.01171791
1691758659292305,-0.24420857,0.03351882,9.78749657,0.00958738,0.01171791,-0.00852212
1691758659294256,-0.17238252,0.22984336,9.73003578,-0.00213053,0.01810949,0.00532632
1691758659296299,-0.22505496,-0.10055647,9.79707336,-0.00958738,0.01491370,0.00000000
1691758659298318,-0.09576806,0.16280572,9.79228497,-0.00213053,0.00319579,0.00106526
1691758659300276,-0.12928689,0.02394202,9.84495735,-0.01278317,-0.00532632,0.01278317
1691758659302255,-0.18195933,0.05267244,9.86411095,-0.01491370,-0.01278317,0.00852212
1691758659304284,-0.04788403,0.11013328,9.78270817,0.01278317,-0.03195793,0.01065264
1691758659306282,-0.24420857,-0.11492168,9.95030212,-0.00213053,-0.03941479,0.00639159
1691758659308283,-0.15322891,0.14844051,9.82101536,-0.01384844,-0.02450108,0.00852212
1691758659310230,-0.20590134,0.00478840,9.78749657,-0.02130529,-0.01278317,0.00639159
1691758659312310,-0.27293900,0.04788403,9.75397778,-0.00106526,0.02130529,0.01278317
1691758659314244,-0.13886370,0.21068975,9.53849983,0.00958738,0.05113269,-0.00639159
1691758659316389,-0.33039984,0.01436521,9.77313137,-0.00319579,0.08948221,0.00639159
1691758659318253,-0.24899697,0.19153613,9.65820980,0.00532632,0.10439591,-0.00106526
1691758659320261,-0.27772740,0.08619126,9.50976944,0.00213053,0.10759171,0.01384844
1691758659322320,-0.43095630,-0.03830723,9.67736340,0.00532632,0.10759171,0.00000000
1691758659324286,-0.16280572,0.21068975,9.54328823,0.00958738,0.11717909,0.01810949
1691758659326262,-0.31603462,0.00000000,9.66299820,0.02024002,0.14061491,-0.00745685
1691758659328357,-0.31124622,0.07661445,9.74918938,0.02556635,0.14381070,0.00000000
1691758659330280,-0.17717093,-0.06703765,9.53371143,0.01597897,0.12037488,-0.02024002
1691758659332306,-0.20590134,-0.00478840,9.67257500,0.02663161,0.09800433,-0.01171791
1691758659334275,-0.17238252,0.22984336,9.72524738,0.02450108,0.06604639,-0.01491370
1691758659336272,0.00000000,0.00000000,9.56723022,0.01278317,0.01171791,-0.00106526
1691758659338270,-0.15322891,0.03351882,9.70130539,0.01597897,-0.05006743,0.01704423
1691758659340256,0.01436521,-0.05746084,9.65342140,-0.00106526,-0.07669904,0.00745685
1691758659342393,0.11013328,-0.21068975,9.66299820,-0.01597897,-0.11504856,0.00000000
1691758659344258,0.03351882,0.11971009,9.65342140,-0.03408846,-0.13209279,-0.00532632
1691758659346290,0.01436521,-0.01915361,9.66778660,-0.01278317,-0.13635385,0.00852212
1691758659348332,0.05267244,0.22984336,9.67736340,-0.02343582,-0.13528858,-0.01810949
1691758659350241,-0.01915361,0.22505496,9.67257500,-0.02769688,-0.13848437,-0.00852212
1691758659352255,-0.14844051,0.07661445,9.66299820,-0.05113269,-0.09054748,-0.00745685
1691758659354289,-0.19153613,0.15801731,9.65820980,-0.03515373,-0.08841695,-0.01704423
1691758659356457,-0.23463176,-0.10055647,9.73961258,-0.04048005,-0.07243798,-0.00106526
1691758659358257,-0.19632454,0.23463176,9.67736340,-0.01917476,-0.04580637,-0.00213053
1691758659360257,-0.18195933,0.23942018,9.69651699,0.00958738,-0.04474111,-0.01171791
1691758659362298,-0.28251579,-0.15322891,9.83059216,0.02450108,-0.02024002,-0.01171791
1691758659364318,-0.13407530,0.29209262,9.74440098,0.01384844,-0.02876214,0.01171791
1691758659366266,-0.32082301,0.03830723,9.86889935,0.01704423,-0.03834952,0.02769688
1691758659368251,-0.29688102,-0.00957681,9.80665016,0.01704423,-0.05113269,0.02130529
1691758659370246,-0.26336220,0.05267244,9.90720654,-0.00639159,-0.04048005,0.01384844
1691758659372306,-0.31603462,-0.22026655,9.88326454,-0.01491370,-0.04580637,0.01065264
1691758659374262,-0.07182605,0.09097967,9.74440098,-0.03195793,-0.05113269,-0.00852212
1691758659376256,-0.28730419,-0.03351882,9.92157173,-0.04900216,-0.03941479,-0.01065264
1691758659378267,-0.27293900,-0.04309563,9.86411095,-0.03195793,-0.03834952,-0.02024002
1691758659380331,-0.02873042,0.22505496,9.81143856,-0.01917476,-0.02237055,-0.01491370
1691758659382319,-0.34955344,-0.11013328,9.96466732,-0.01810949,-0.00852212,-0.03834952
1691758659384271,-0.08619126,0.28251579,9.73003578,-0.00958738,0.00000000,-0.02663161
1691758659386365,-0.25378537,0.09576806,9.87847614,0.02024002,0.01491370,-0.01171791
1691758659388386,-0.33997664,0.16280572,9.84974575,0.03408846,0.02237055,-0.01278317
1691758659390172,-0.12928689,0.24899697,9.73003578,0.03834952,0.03515373,-0.02982740
1691758659392262,-0.26815060,0.18195933,9.87368774,0.04261058,0.05113269,-0.00639159
1691758659394349,-0.23942018,0.16280572,9.83059216,0.03941479,0.05326322,-0.00852212
1691758659396412,-0.35913026,-0.04788403,9.91678333,0.02024002,0.05858954,-0.02130529
1691758659398268,-0.28730419,0.09097967,9.94551373,0.02024002,0.05965481,0.00106526
1691758659400263,-0.00957681,0.17238252,9.85932255,0.01917476,0.07776430,-0.00426106
1691758659402288,-0.25378537,-0.10534488,9.99818611,0.00958738,0.07456851,-0.00852212
1691758659404290,-0.08140286,0.27293900,9.99818611,0.00319579,0.06604639,-0.03515373
1691758659406276,-0.26815060,-0.16280572,10.09395409,-0.00319579,0.04687164,-0.01704423
1691758659408287,-0.23942018,0.00478840,10.07958889,-0.01065264,0.04367584,-0.02663161
1691758659410262,-0.13886370,-0.16280572,10.17535686,-0.01491370,0.01917476,-0.01171791
1691758659412437,-0.22026655,-0.23942018,10.16099167,-0.02343582,0.01917476,-0.00532632
1691758659414330,0.00957681,0.29688102,10.12747288,-0.03195793,0.02024002,-0.00958738
1691758659416293,-0.10534488,-0.17717093,10.21845245,-0.01171791,0.00745685,-0.01810949
1691758659418286,-0.01915361,0.24899697,10.06522369,-0.00213053,0.01704423,-0.01065264
1691758659420272,-0.16759412,0.13407530,10.11789608,0.00426106,0.03408846,-0.00106526
1691758659422326,-0.29209262,-0.22505496,10.11789608,-0.00426106,0.03834952,-0.01704423
1691758659424274,-0.10055647,0.33039984,10.07480049,0.01491370,0.03728426,-0.01384844
1691758659426311,-0.31603462,-0.30645782,10.16099167,0.02237055,0.04367584,-0.02130529
1691758659428260,-0.07182605,0.20590134,10.02212811,0.02237055,0.04154531,-0.00852212
1691758659430287,-0.13407530,0.13407530,10.14662647,0.01384844,0.04261058,-0.02024002
1691758659432306,-0.15801731,-0.15322891,10.10831928,0.00532632,0.04048005,-0.02663161
1691758659434258,0.00478840,0.38786069,10.07958889,-0.01171791,0.02450108,-0.04154531
1691758659436256,-0.33518824,-0.22026655,10.20887566,0.00106526,0.01917476,-0.02876214
1691758659438321,-0.10534488,0.16280572,10.04128170,0.00426106,0.01384844,-0.02450108
1691758659440286,-0.19632454,0.00000000,10.20887566,-0.00532632,-0.00532632,-0.02237055
1691758659442277,-0.12449849,-0.18674773,10.16099167,-0.01065264,-0.00639159,-0.02769688
1691758659444276,-0.00957681,0.25857377,10.09874249,-0.00426106,-0.00852212,-0.03089267
1691758659446309,-0.24899697,-0.08619126,10.21845245,-0.00319579,0.00000000,-0.02876214
1691758659448307,0.08619126,0.28730419,10.03649330,-0.01171791,0.00852212,-0.02024002
1691758659450242,-0.33039984,-0.12928689,10.23760605,0.01597897,0.00958738,-0.02130529
1691758659452264,-0.23463176,-0.10055647,10.17535686,0.02343582,0.00532632,-0.02556635
1691758659454275,-0.18195933,0.16280572,10.13704967,0.00852212,0.00532632,-0.00958738
1691758659456291,-0.38786069,-0.17238252,10.27591324,-0.01491370,0.00000000,0.00106526
1691758659458332,-0.03830723,0.09576806,10.14183807,-0.02556635,-0.01278317,-0.01278317
1691758659460234,-0.20590134,-0.09097967,10.26154804,-0.00852212,-0.01278317,-0.01384844
1691758659462340,-0.15322891,0.15322891,10.21366405,-0.00426106,-0.00426106,0.00319579
1691758659464320,-0.11492168,0.29209262,10.14662647,-0.01278317,0.02237055,0.01065264
1691758659466289,-0.29209262,-0.09576806,10.10353088,-0.00852212,0.06178534,-0.00106526
1691758659468261,-0.22984336,0.24420857,9.91199493,0.02130529,0.10013486,0.01065264
1691758659470231,-0.38786069,-0.06224924,9.96945572,0.03834952,0.12570120,-0.01278317
1691758659472335,-0.27772740,0.12449849,9.90720654,0.05858954,0.12676647,-0.01917476
1691758659474283,-0.29209262,0.14844051,9.89762974,0.05432849,0.12144014,-0.03515373
1691758659476326,-0.35913026,-0.03351882,9.83059216,0.06924219,0.10759171,-0.01704423
1691758659478284,-0.07661445,0.26815060,9.87368774,0.07563377,0.09480853,-0.01597897
1691758659480300,-0.29209262,-0.11492168,10.01733971,0.06604639,0.07882957,0.00213053
1691758659482281,-0.08619126,0.12928689,9.81622696,0.04367584,0.06072007,-0.00532632
1691758659484334,-0.17238252,0.02873042,9.95509052,0.02556635,0.04474111,-0.00639159
1691758659486292,0.01915361,0.14844051,9.81143856,0.00426106,0.02769688,-0.01171791
1691758659488339,0.03830723,0.14365210,9.85932255,-0.00958738,0.02343582,-0.00745685
1691758659490266,-0.27772740,-0.26815060,10.05085850,-0.02450108,0.01597897,-0.00852212
1691758659492369,0.02873042,0.13886370,9.84016895,-0.01704423,0.01278317,-0.00852212
1691758659494259,-0.08619126,0.03830723,10.03649330,-0.00639159,0.01491370,0.01384844
1691758659496278,-0.11492168,-0.09576806,9.93114853,-0.00213053,0.01810949,0.01065264
1691758659498331,0.00000000,0.28251579,9.91199493,0.01810949,0.02663161,0.02769688
1691758659500251,-0.34955344,-0.11013328,10.07958889,0.02769688,0.05006743,-0.00213053
1691758659502260,-0.12449849,0.24899697,9.75876617,0.05432849,0.05432849,-0.00852212
1691758659504268,-0.22984336,0.16280572,9.94072533,0.04154531,0.06285060,-0.03302320
1691758659506253,-0.29688102,-0.08619126,9.90720654,0.02876214,0.07243798,-0.03621899
1691758659508314,-0.26336220,0.10055647,9.86889935,0.02130529,0.11078750,-0.04474111
1691758659510235,-0.40222588,-0.09097967,9.95030212,0.02876214,0.11717909,-0.02130529
1691758659512340,-0.15322891,0.23463176,9.70609379,0.03195793,0.14381070,-0.01065264
1691758659514314,-0.25857377,0.17238252,9.80186176,0.03408846,0.19387813,-0.00426106
1691758659516288,-0.25857377,-0.05746084,9.77791977,0.03941479,0.22157501,-0.01491370
1691758659518265,-0.08619126,0.27772740,9.59117222,0.05006743,0.20985709,0.00213053
1691758659520252,-0.40222588,-0.05267244,9.78270817,0.04900216,0.18748654,0.00639159
1691758659522341,-0.21547815,0.12449849,9.63905621,0.04474111,0.16724652,0.01704423
1691758659524266,-0.28730419,0.01915361,9.66778660,0.04154531,0.13315806,0.00532632
1691758659526260,-0.19632454,-0.21547815,9.64863300,0.02450108,0.10013486,0.00532632
1691758659528252,-0.02394202,0.06703765,9.59117222,0.01278317,0.05645901,-0.02024002
1691758659530278,-0.21547815,-0.11971009,9.73961258,0.02130529,0.03621899,-0.00745685
1691758659532470,0.03351882,0.13886370,9.56244183,0.03728426,0.03195793,-0.00745685
1691758659534294,-0.20111294,-0.06224924,9.67257500,0.04261058,0.02450108,-0.00852212
1691758659536304,0.04788403,-0.01436521,9.52892303,0.05113269,0.02343582,-0.00958738
1691758659538320,0.00957681,0.20590134,9.45709705,0.06604639,0.05752428,0.01597897
1691758659540288,-0.30645782,0.02873042,9.51934624,0.07137272,0.11611383,0.00852212
1691758659542264,-0.18674773,0.16280572,9.36132908,0.08841695,0.12570120,-0.00639159
1691758659544260,-0.41659111,0.06703765,9.55765343,0.08202536,0.17044231,0.00106526
1691758659546231,-0.39264908,-0.03830723,9.34217548,0.06604639,0.18109496,-0.00426106
1691758659548324,-0.13407530,0.06224924,9.38527107,0.06285060,0.17896442,0.00106526
1691758659550327,-0.43095630,-0.10534488,9.58638382,0.05858954,0.17257284,-0.00213053
1691758659552265,-0.11492168,0.19153613,9.29907894,0.05219796,0.18429075,-0.00532632
1691758659554276,-0.20111294,0.21547815,9.55765343,0.06072007,0.17576863,-0.02876214
1691758659556333,-0.18674773,0.12449849,9.40442467,0.08948221,0.16511598,-0.01704423
1691758659558263,0.10534488,0.29209262,9.38048267,0.08096009,0.15765914,-0.00532632
1691758659560236,-0.28730419,-0.12928689,9.66778660,0.06924219,0.11291803,-0.02024002
1691758659562311,-0.00478840,0.06224924,9.43315506,0.04048005,0.07563377,0.00745685
1691758659564233,-0.14365210,-0.05267244,9.69172859,0.03195793,0.03195793,0.00958738
1691758659566329,-0.16759412,-0.18195933,9.63426781,0.01384844,-0.00213053,-0.00106526
1691758659568366,0.16759412,0.06703765,9.59117222,-0.00426106,-0.02556635,-0.00106526
1691758659570263,-0.12449849,-0.03830723,9.85932255,-0.03621899,-0.05965481,0.02024002
1691758659572468,0.20590134,0.03351882,9.60553741,-0.02982740,-0.07030746,0.01278317
1691758659574323,-0.14365210,0.00478840,9.84974575,-0.02769688,-0.06498113,0.02343582
1691758659576319,-0.01915361,0.03351882,9.76834297,-0.02130529,-0.06817693,0.02556635
1691758659578280,0.00000000,0.10534488,9.63426781,0.00639159,-0.06817693,0.01278317
1691758659580291,-0.25378537,0.02873042,9.85932255,0.01810949,-0.04793690,0.00426106
1691758659582381,-0.11013328,-0.04309563,9.71088219,0.02024002,-0.06178534,-0.01278317
1691758659584270,-0.24899697,0.13407530,9.91199493,0.00213053,-0.03302320,-0.00745685
1691758659586256,-0.15322891,-0.01436521,9.93593693,-0.00319579,-0.02982740,-0.00745685
1691758659588327,-0.15801731,-0.06703765,9.77791977,-0.02556635,-0.02876214,-0.01171791
1691758659590310,-0.21068975,0.19153613,9.76355457,-0.02982740,-0.03728426,-0.01384844
1691758659592303,-0.06703765,0.00478840,9.54328823,-0.01810949,-0.06072007,0.00319579
1691758659594262,-0.15801731,-0.02394202,9.35654068,-0.00745685,-0.07776430,0.01704423
1691758659596278,-0.06224924,0.16280572,9.03092861,-0.01171791,-0.08096009,-0.00745685
1691758659598325,-0.13886370,-0.03351882,8.74841309,-0.00852212,-0.09054748,-0.00213053
1691758659600250,-0.28251579,0.07661445,8.54251194,-0.00213053,-0.09161274,-0.00852212
1691758659602259,-0.21068975,0.05746084,8.18338108,0.00745685,-0.09267800,0.00532632
1691758659604308,-0.37828386,0.12449849,8.06367111,0.01597897,-0.04580637,0.00532632
1691758659606333,-0.29688102,0.24899697,7.70932961,0.02556635,0.01597897,0.00319579
1691758659608334,-0.27293900,0.07661445,7.44596720,0.05006743,0.02556635,0.00000000
1691758659610259,-0.53151280,0.16280572,7.48906279,0.06604639,0.09906960,-0.00319579
1691758659612327,-0.35434186,0.12928689,7.13950968,0.07350325,0.09054748,-0.02663161
1691758659614307,-0.32561144,0.04309563,7.03895283,0.06072007,0.06285060,-0.03408846
1691758659616304,-0.36870706,0.06703765,7.01501083,0.06391586,0.06604639,-0.04048005
1691758659618277,-0.11013328,0.06703765,6.81389809,0.06711166,-0.02876214,-0.02876214
1691758659620236,-0.11492168,0.08140286,6.80910969,0.03302320,-0.05432849,-0.01917476
1691758659622358,-0.08619126,-0.08140286,6.73249531,0.02663161,-0.12144014,-0.02556635
1691758659624363,0.12449849,0.10534488,6.61278486,-0.00213053,-0.16511598,-0.01065264
1691758659626259,0.04309563,0.02873042,6.62236214,0.00639159,-0.16937704,-0.00958738
1691758659628265,0.00957681,-0.12449849,6.51222849,0.00852212,-0.20346551,-0.00958738
1691758659630367,0.05746084,0.15801731,6.43082571,0.01278317,-0.19387813,-0.02450108
1691758659632299,-0.09576806,0.04309563,6.46913290,0.02663161,-0.17150757,-0.01917476
1691758659634282,-0.19632454,0.03351882,6.42124891,0.03621899,-0.17470337,-0.01704423
1691758659636263,-0.15801731,0.16280572,6.43561411,0.04474111,-0.15446334,-0.01810949
1691758659638302,-0.24420857,0.06703765,6.50744009,0.03621899,-0.12037488,-0.01917476
1691758659640289,-0.29209262,-0.00478840,6.51701689,0.04154531,-0.10546118,-0.03302320
1691758659642330,-0.20590134,-0.01915361,6.53617048,0.04580637,-0.09693906,-0.02450108
1691758659644274,-0.29688102,0.00957681,6.62715054,0.02450108,-0.06604639,-0.01917476
1691758659646293,-0.31603462,-0.05746084,6.66066933,0.04048005,-0.04367584,-0.01917476
1691758659648339,-0.24420857,-0.02873042,6.67503452,0.01171791,-0.04793690,-0.00745685
1691758659650334,-0.36391866,0.06703765,6.75164890,0.00319579,-0.02343582,-0.00958738
1691758659652285,-0.43574470,0.01915361,6.85220528,-0.00852212,-0.01384844,0.02024002
1691758659654300,-0.33518824,0.04309563,6.92403126,-0.01278317,-0.01171791,0.01065264
1691758659656370,-0.38786069,0.01436521,6.94318485,-0.01597897,0.00213053,0.00852212
1691758659658311,-0.41180268,0.01915361,7.00064564,-0.01810949,0.00213053,-0.00319579
1691758659660238,-0.29209262,-0.00957681,7.11077929,-0.01171791,0.01065264,-0.02130529
1691758659662207,-0.33997664,-0.10534488,7.14429808,-0.00532632,0.01810949,-0.02663161
1691758659664340,-0.25857377,0.15801731,7.21133566,0.00532632,0.00958738,-0.03089267
1691758659666355,-0.28730419,0.04309563,7.27837324,-0.00745685,0.00426106,-0.02982740
1691758659668315,0.00957681,-0.15322891,7.42202520,0.01384844,0.01171791,-0.02024002
1691758659670243,0.13407530,-0.18674773,7.46512079,0.01278317,0.00000000,-0.01810949
1691758659672343,0.08140286,-0.30166942,7.64229202,0.00745685,-0.02769688,-0.00106526
1691758659674295,0.04309563,-0.18195933,7.61356163,0.01704423,-0.02876214,0.00426106
1691758659676275,0.02394202,0.00000000,7.60398483,0.02343582,-0.02876214,0.00426106
1691758659678261,-0.08619126,-0.05746084,7.72848320,-0.00319579,-0.01704423,0.00852212
1691758659680331,-0.10055647,0.08619126,7.60398483,-0.00426106,-0.01278317,0.01384844
1691758659682361,-0.26336220,0.15322891,7.60398483,0.01597897,-0.00319579,0.00639159
1691758659684377,-0.37349546,0.06703765,7.84340477,0.02769688,0.02450108,-0.00213053
1691758659686293,-0.14365210,0.00957681,7.80509758,0.02024002,0.02663161,0.00958738
1691758659688364,-0.33039984,0.08140286,7.78594398,0.02024002,0.02876214,0.02024002
1691758659690291,-0.33518824,-0.05267244,7.97269154,0.03621899,0.04154531,0.01384844
1691758659692292,-0.21547815,0.14844051,8.00621033,0.02343582,0.04900216,0.01065264
1691758659694261,-0.30166942,-0.05267244,8.04930592,0.00958738,0.04900216,0.00852212
1691758659696296,-0.31603462,-0.12449849,8.21211147,0.01704423,0.03195793,0.01278317
1691758659698325,-0.22984336,0.07661445,8.20253468,0.02982740,0.03408846,0.00532632
1691758659700295,-0.29209262,-0.02873042,8.28393745,0.00745685,0.02556635,0.00000000
1691758659702273,-0.24899697,-0.01436521,8.45632076,-0.01704423,0.01917476,0.00319579
1691758659704285,-0.17238252,0.02394202,8.46589756,-0.02024002,0.00532632,-0.00532632
1691758659706384,-0.22984336,-0.07661445,8.50420475,-0.01704423,-0.00639159,0.00213053
1691758659708326,-0.21547815,0.12449849,8.66701031,-0.04048005,-0.00106526,-0.00639159
1691758659710251,-0.21068975,0.00957681,8.68616390,-0.06072007,-0.01917476,-0.00106526
1691758659712324,-0.14844051,0.00478840,8.60954952,-0.06178534,-0.01171791,-0.01491370
1691758659714329,-0.14365210,0.19632454,8.76756668,-0.05219796,-0.00958738,-0.00319579
1691758659716310,-0.12928689,0.00478840,8.82981586,-0.03621899,-0.02130529,0.00319579
1691758659718308,-0.00478840,0.12928689,8.82023907,-0.03408846,-0.01065264,0.01065264
1691758659720275,-0.23942018,0.08140286,9.00219822,-0.03941479,-0.00958738,0.01171791
1691758659722302,-0.21068975,0.10055647,8.88248825,-0.03089267,-0.00426106,-0.00213053
1691758659724352,-0.18674773,0.25857377,8.96389103,-0.02237055,-0.00213053,-0.00852212
1691758659726290,-0.46447513,-0.02394202,9.11233139,-0.02237055,0.01171791,0.00106526
1691758659728427,-0.10055647,0.12928689,8.93037224,-0.02450108,0.01278317,0.01065264
1691758659730296,-0.38307226,0.01915361,9.22246456,-0.01171791,0.03195793,0.02024002
1691758659732275,-0.48362875,-0.18195933,9.17458057,-0.02450108,0.03515373,0.01597897
1691758659734321,-0.10534488,0.13886370,9.04529381,-0.03515373,0.01491370,0.01917476
1691758659736285,-0.46447513,-0.08140286,9.29429054,-0.04154531,0.01810949,0.00852212
1691758659738337,-0.20111294,0.08619126,9.13148499,-0.03728426,0.01065264,0.01704423
1691758659740265,0.14365210,0.18195933,9.19852257,-0.04580637,-0.00106526,-0.00319579
1691758659742362,-0.22984336,-0.07182605,9.39484787,-0.05752428,-0.01491370,0.00745685
1691758659744283,0.01436521,0.10055647,9.24640656,-0.06072007,-0.01917476,-0.00106526
1691758659746302,-0.11971009,0.06703765,9.41400146,-0.06924219,-0.03621899,0.00319579
1691758659748296,-0.21547815,0.11492168,9.41878986,-0.05432849,-0.03621899,0.00213053
1691758659750256,0.00478840,0.19153613,9.32781029,-0.04580637,-0.04154531,0.00213053
1691758659752269,-0.22026655,-0.20111294,9.51455784,-0.03195793,-0.04793690,-0.00532632
1691758659754301,-0.12449849,0.08619126,9.44273186,-0.03089267,-0.04474111,-0.00745685
1691758659756413,-0.22026655,-0.05746084,9.52413464,-0.02982740,-0.04900216,0.00745685
1691758659758274,-0.22984336,-0.00478840,9.58638382,-0.04580637,-0.05432849,-0.00745685
1691758659760271,0.00000000,0.17238252,9.48103905,-0.05219796,-0.04900216,-0.00532632
1691758659762337,-0.11492168,-0.12449849,9.55765343,-0.06178534,-0.05432849,-0.01065264
1691758659764359,0.01436521,0.20590134,9.57201862,-0.08096009,-0.05752428,0.00106526
1691758659766310,-0.18195933,0.06703765,9.61511421,-0.07456851,-0.05539375,0.00106526
1691758659768308,-0.19632454,0.05746084,9.57201862,-0.07030746,-0.05219796,0.00958738
1691758659770269,-0.11013328,0.23463176,9.61511421,-0.06817693,-0.05432849,0.01704423
1691758659772348,-0.30645782,-0.18674773,9.66778660,-0.06817693,-0.05432849,0.01704423
1691758659774290,-0.16280572,0.13886370,9.56723022,-0.06817693,-0.04687164,0.02130529
1691758659776269,-0.33997664,-0.00478840,9.73482418,-0.05645901,-0.03941479,0.01491370
1691758659778297,-0.25378537,0.06224924,9.64384460,-0.03621899,-0.03834952,0.00532632
1691758659780299,-0.09097967,0.38786069,9.66299820,-0.02450108,-0.03089267,-0.00319579
1691758659782315,-0.30166942,-0.09576806,9.81143856,-0.02769688,-0.00745685,0.00000000
1691758659784296,0.02394202,0.24899697,9.64384460,-0.02982740,-0.00319579,0.00745685
1691758659786316,-0.27772740,0.11013328,9.82580376,-0.03408846,-0.01065264,0.02343582
1691758659788310,-0.34955344,-0.03351882,9.77791977,-0.04580637,-0.01171791,0.01704423
1691758659790339,-0.04788403,0.26815060,9.76355457,-0.04687164,-0.00852212,0.00958738
1691758659792272,-0.36870706,-0.20590134,9.88326454,-0.05006743,-0.02663161,-0.00106526
1691758659794265,-0.03351882,0.07661445,9.69651699,-0.05326322,-0.04580637,0.00319579
1691758659796344,-0.20111294,0.00478840,9.95030212,-0.04367584,-0.02982740,-0.00319579
1691758659798311,-0.24420857,-0.05746084,9.84974575,-0.04261058,-0.01491370,0.00106526
1691758659800269,0.06703765,0.25378537,9.81622696,-0.06498113,-0.00213053,-0.00106526
1691758659802288,-0.31603462,-0.18195933,10.02212811,-0.06817693,0.00319579,0.01384844
1691758659804308,-0.06703765,0.12449849,9.81622696,-0.06285060,0.01278317,-0.00319579
1691758659806374,-0.19153613,0.02394202,9.97903252,-0.05326322,0.02237055,0.00106526
1691758659808334,-0.28730419,0.03830723,9.94072533,-0.05326322,0.01704423,-0.00426106
1691758659810251,0.00478840,0.19632454,9.81622696,-0.05858954,0.01065264,0.00106526
1691758659812343,-0.32561144,-0.19153613,9.99818611,-0.06604639,0.00106526,-0.02024002
1691758659814368,-0.10534488,0.14365210,9.86889935,-0.07030746,-0.00532632,-0.00958738
1691758659816346,-0.21068975,-0.06224924,9.96945572,-0.06711166,-0.01491370,-0.00106526
1691758659818288,-0.25857377,-0.01436521,9.98860931,-0.05539375,-0.02237055,0.00532632
1691758659820305,0.00957681,0.18674773,9.89762974,-0.05113269,-0.02130529,-0.00852212
1691758659822383,-0.20111294,-0.13886370,10.00297451,-0.05113269,-0.01491370,0.00213053
1691758659824297,-0.00957681,0.26815060,9.88805294,-0.04580637,-0.01810949,0.01171791
1691758659826260,-0.10055647,-0.00478840,9.96466732,-0.03834952,-0.02130529,0.02024002
1691758659828301,-0.14844051,0.07661445,9.94551373,-0.04687164,-0.02343582,0.00639159
1691758659830334,-0.08619126,0.19153613,9.94072533,-0.04154531,-0.01810949,-0.00213053
1691758659832314,-0.29688102,-0.19632454,9.95987892,-0.05113269,-0.00639159,-0.01597897
1691758659834317,-0.06703765,0.26815060,9.85932255,-0.05645901,-0.00958738,-0.01171791
1691758659836272,-0.20590134,-0.11971009,10.03649330,-0.06178534,-0.01597897,-0.00852212
1691758659838384,-0.10055647,0.08140286,9.93114853,-0.06604639,-0.01597897,-0.00106526
1691758659840278,-0.04788403,0.31124622,9.95509052,-0.06498113,-0.01704423,-0.00532632
1691758659842308,-0.22505496,-0.13407530,9.98382092,-0.05326322,-0.02556635,-0.00745685
1691758659844261,0.01915361,0.41180268,9.89762974,-0.04793690,-0.02556635,-0.01065264
1691758659846289,-0.28251579,-0.11013328,10.07958889,-0.04687164,-0.01810949,0.01171791
1691758659848221,-0.16759412,0.00957681,9.89762974,-0.05219796,-0.01491370,0.01597897
1691758659850256,-0.21547815,0.17238252,9.99818611,-0.05006743,-0.01597897,0.02556635
1691758659852308,-0.36870706,-0.27293900,10.06043530,-0.04474111,-0.00958738,0.00745685
1691758659854318,0.03351882,0.25378537,9.93593693,-0.04900216,-0.00852212,0.00958738
1691758659856376,-0.24420857,-0.04309563,10.12747288,-0.05645901,-0.01597897,-0.00213053
1691758659858344,-0.11492168,0.08140286,9.93593693,-0.06072007,-0.01917476,-0.01065264
1691758659860254,-0.11971009,0.22505496,10.04607010,-0.04048005,-0.01065264,-0.00532632
1691758659862339,-0.30645782,-0.09576806,10.08437729,-0.03728426,-0.01065264,0.00639159
1691758659864332,-0.01436521,0.22984336,9.94072533,-0.03728426,-0.01384844,0.01704423
1691758659866310,-0.41180268,-0.15322891,10.18014526,-0.03089267,-0.00106526,0.02024002
1691758659868270,-0.22505496,0.02873042,10.01733971,-0.03089267,0.01384844,0.01704423
1691758659870251,-0.14844051,0.13886370,10.06522369,-0.02982740,0.02024002,0.01065264
1691758659872346,-0.27293900,-0.02394202,10.16099167,-0.02663161,0.02024002,-0.00106526
1691758659874295,0.06224924,0.26815060,10.00297451,-0.02343582,0.01491370,-0.01704423
1691758659876301,-0.22984336,-0.05746084,10.12747288,-0.01597897,0.01597897,-0.01917476
1691758659878328,-0.10534488,0.16759412,9.99339771,-0.00639159,0.00958738,0.00000000
